Round	Trial Num	TrialType	TrialOnset	ChoiceOnset	DecisionOnset	Feedback Onset	RT	Safe Bet	Low Bet	High Bet	High Bet Pos	Gamble Pos	Choice Pos	Gamble Choice	Outcome	Profit	TotalProfit	
1	104	loss	364.0120023000002	364.01459410000007	366.82299820000003	368.83938030000013	2.8084040999999615	-0.2	-0.44	0	top	right	right	gamble	good	0.0	10.0	
2	147	loss	373.04275370000005	373.05480490000014	375.75100470000007	377.7679435	2.696199799999931	-0.6	-1.9	0	top	left	left	gamble	bad	-1.9	8.1	
3	79	gain	382.67653740000014	382.67736590000004	384.84689320000007	384.8543912	2.169527300000027	0.4	0	1.68	top	right	left	safe	bad	0.4	8.5	
4	21	mix	401.2382014	401.2451530000001	404.2695530000001	404.2771905000002	3.024400000000014	0	-0.8	0.8	bottom	left	right	safe	bad	0.0	8.5	
5	100	gain	411.5393586	411.5456494	413.88108920000013	415.8966686000001	2.335439800000131	0.6	0	3	top	left	left	gamble	good	3.0	11.5	
6	142	loss	421.3627243000001	421.36374380000007	424.4421727000001	426.4589566000002	3.0784289000000626	-0.6	-1.09	0	top	right	right	gamble	bad	-1.09	10.41	
7	102	loss	440.8662367000002	440.86710400000015	443.63234380000017	443.6393340000002	2.7652398000000176	-0.2	-0.36	0	top	right	left	safe	bad	-0.2	10.21	
8	19	mix	450.2433702000001	450.24421970000003	453.2272425000001	455.2426352	2.9830228000000716	0	-0.8	0.53	bottom	right	right	gamble	bad	-0.8	9.41	
9	114	loss	460.6995276	460.7073994	463.83794680000005	465.8536325	3.1305474000000686	-0.3	-0.67	0	top	left	left	gamble	good	0.0	9.41	
10	71	gain	479.81230419999997	479.8183905000001	482.24470570000017	482.24886620000007	2.42631520000009	0.4	0	0.67	bottom	left	right	safe	bad	0.4	9.81	
11	56	gain	489.0129449000001	489.01877850000005	491.55705090000015	493.57294990000014	2.5382724000000962	0.2	0	0.56	bottom	left	left	gamble	bad	0.0	9.81	
12	80	gain	499.00598560000003	499.01283480000006	501.88501040000006	503.90076220000014	2.8721755999999914	0.4	0	2	top	left	left	gamble	bad	0.0	9.81	
13	113	loss	520.8424644000002	520.8431928	522.57402	524.5892401000001	1.7308272000000215	-0.3	-0.6	0	bottom	right	right	gamble	good	0.0	9.81	
14	64	gain	529.1162044	529.1221616	531.1860797000002	531.1929986	2.063918100000137	0.3	0	0.67	top	left	right	safe	bad	0.3	10.11	
15	129	loss	537.8286392	537.8298762000002	539.3319242	539.3395406000002	1.5020479999998315	-0.4	-1.68	0	top	right	left	safe	bad	-0.4	9.71	
16	128	loss	555.0909590000001	555.0916949	557.7884033	559.8050626000002	2.696708400000034	-0.4	-1.44	0	top	right	right	gamble	bad	-1.44	8.27	
17	134	loss	565.2909960000002	565.2917153000001	566.9671899	566.9741219	1.6754745999999159	-0.5	-1.11	0	bottom	right	left	safe	bad	-0.5	7.77	
18	10	mix	573.6167302000001	573.6237663000002	575.1129872000001	577.1288295000002	1.4892208999999639	0	-0.5	0.2	top	left	left	gamble	good	0.2	7.97	
19	67	gain	591.0219511	591.0227133000001	593.5032042	595.5195633000001	2.4804908999999498	0.3	0	0.95	top	right	right	gamble	bad	0.0	7.97	
20	45	mix	600.6912409000001	600.6981334000002	602.5978827000001	604.6143218	1.8997492999999395	0	-1.1	1.32	top	left	left	gamble	bad	-1.1	6.87	
21	112	loss	609.3220517	609.3293944000002	611.1767327	613.1932975	1.8473382999998194	-0.3	-0.55	0	bottom	left	left	gamble	bad	-0.55	6.32	
22	76	gain	626.7353115000001	626.7443873	628.7508380000002	628.7583223000001	2.0064507000001868	0.4	0	1.12	bottom	left	right	safe	good	0.4	6.72	
23	48	mix	635.7306532	635.7314018000002	637.8298635000001	637.837299	2.098461699999916	0	-1.5	1.8	bottom	right	left	safe	good	0.0	6.72	
24	18	mix	644.6292920000001	644.6300408000002	646.7246171000002	646.7321065000001	2.0945762999999715	0	-0.8	0.42	top	right	left	safe	bad	0.0	6.72	
25	8	mix	663.3658156000001	663.3665783000001	665.9481824000002	667.9646438	2.5816041000000496	0	-0.5	0.1	bottom	right	right	gamble	good	0.1	6.82	
26	58	gain	672.7406376000001	672.7413888000001	675.1267841000001	677.1430642	2.3853953000000274	0.2	0	0.72	bottom	right	right	gamble	good	0.72	7.54	
27	5	mix	682.3698055	682.3775547	684.6717521	684.6791337000002	2.29419740000003	0	-0.3	0.2	top	left	right	safe	good	0.0	7.54	
28	98	gain	701.1137988	701.1145261000001	703.99487	706.0106662000001	2.8803438999998434	0.6	0	2.16	bottom	right	right	gamble	bad	0.0	7.54	
29	139	loss	710.5939740000001	710.6018704	713.7231121	713.7312685000002	3.1212416999999277	-0.5	-2.1	0	top	left	right	safe	bad	-0.5	7.04	
30	38	mix	720.9081118000001	720.9088495000001	722.1178976000001	724.1340224	1.2090481000000182	0	-0.5	0.6	bottom	right	right	gamble	good	0.6	7.64	
31	14	mix	738.3099149000002	738.3181465	741.2767882	743.2904234	2.958641700000044	0	-0.5	0.5	top	left	left	gamble	good	0.5	8.14	
32	11	mix	747.8366432	747.8405898000001	750.0039390000002	752.0189926	2.1633492000000842	0	-0.5	0.26	top	left	left	gamble	bad	-0.5	7.64	
33	30	mix	756.8762615	756.8826705000001	758.5489035	760.5655791000001	1.6662329999999201	0	-1.5	0.6	top	left	left	gamble	bad	-1.5	6.14	
34	36	mix	774.5072757	774.5135250999999	778.6882244999999	780.7045153000001	4.174699400000009	0	-0.3	0.45	top	left	left	gamble	bad	-0.3	5.84	
35	1	mix	785.6196387000002	785.6253140000001	787.5839882000002	789.5999242	1.9586742000001323	0	-0.3	0.06	bottom	left	left	gamble	bad	-0.3	5.54	
36	116	loss	794.2592043000002	794.2668375999999	797.2789892000003	799.2951178999999	3.0121516000003794	-0.3	-0.84	0	bottom	left	left	gamble	bad	-0.84	4.7	
37	87	gain	813.4528244999999	813.4609186	816.3682041	816.3758562	2.9072854999999436	0.5	0	1.58	bottom	left	right	safe	good	0.5	5.2	
38	120	loss	823.3676312999999	823.3743109	825.5970199000001	827.6135194000001	2.2227090000001226	-0.3	-1.5	0	top	left	left	gamble	bad	-1.5	3.7	
39	74	gain	832.5005042999999	832.5012125999999	834.4582493999999	834.4628847000001	1.957036799999969	0.4	0	0.89	bottom	right	left	safe	bad	0.4	4.1	
40	123	loss	850.1336423999999	850.1344526999999	852.7655839000001	854.7824249000003	2.6311312000002545	-0.4	-0.8	0	bottom	right	right	gamble	bad	-0.8	3.3	
41	148	loss	859.6898109000001	859.6905705000001	862.3105815000001	864.3273943000002	2.6200109999999768	-0.6	-2.16	0	bottom	right	right	gamble	bad	-2.16	1.14	
42	25	mix	869.3359714000001	869.3439156000002	871.7728688	873.7889743000003	2.428953199999796	0	-1.1	0.57	top	left	left	gamble	good	0.57	1.71	
43	146	loss	888.1630852000001	888.1710976000002	891.1458812000003	891.1512711000003	2.974783600000137	-0.6	-1.68	0	bottom	left	right	safe	bad	-0.6	1.11	
44	83	gain	897.7825343000002	897.7833176000001	900.1406539000002	900.1479363000001	2.3573363000000427	0.5	0	1	bottom	right	left	safe	bad	0.5	1.61	
45	92	gain	907.6781954	907.6789421999999	910.2357370000002	910.2432188999999	2.5567948000002616	0.6	0	1.09	top	right	left	safe	good	0.6	2.21	
46	28	mix	927.4756144999999	927.4763690000002	933.0237116000001	935.0399939000001	5.547342599999865	0	-1.5	0.3	top	right	right	gamble	bad	-1.5	0.71	
47	149	loss	939.7064723999999	939.7072322000001	942.2521911000001	942.2596939000002	2.5449588999999833	-0.6	-2.52	0	bottom	right	left	safe	bad	-0.6	0.11	
48	121	loss	949.5389963999999	949.5452353000003	951.6805876000001	951.6879293	2.135352299999795	-0.4	-0.67	0	bottom	left	right	safe	bad	-0.4	-0.29	
49	51	gain	967.6727991999999	967.6799573999999	970.5372623999999	972.5524757000001	2.8573049999999967	0.2	0	0.34	bottom	left	left	gamble	bad	0.0	-0.29	
50	140	loss	978.0041547000003	978.0051748000003	981.3144034	983.3309105000001	3.309228599999642	-0.5	-2.5	0	top	right	right	gamble	bad	-2.5	-2.79	
51	135	loss	988.0984918000001	988.1053485	990.2268738999999	992.2421648000002	2.121525399999882	-0.5	-1.24	0	top	left	left	gamble	good	0.0	-2.79	
52	141	loss	1007.5666914999999	1007.5746864999999	1009.9490378000003	1011.9660651000002	2.3743513000003986	-0.6	-1.01	0	bottom	left	left	gamble	bad	-1.01	-3.8	
53	37	mix	1016.5834785	1016.5905571999999	1018.1621184000003	1020.1772725000003	1.5715612000003603	0	-0.3	0.6	bottom	left	left	gamble	bad	-0.3	-4.1	
54	50	mix	1024.7540679	1024.7598469000002	1027.2572263	1029.2737786999999	2.4973793999997724	0	-1.5	3	top	left	left	gamble	good	3.0	-1.1	
55	126	loss	1044.29723	1044.3055252000001	1046.130426	1048.1457780000003	1.8249007999997957	-0.4	-1.12	0	bottom	left	left	gamble	bad	-1.12	-2.22	
56	115	loss	1053.4333668000002	1053.4340824000003	1056.8253828	1058.841021	3.3913003999996363	-0.3	-0.74	0	top	right	right	gamble	bad	-0.74	-2.96	
57	137	loss	1063.7585139	1063.765048	1064.8706556	1066.8864297000002	1.1056075999999848	-0.5	-1.58	0	bottom	left	left	gamble	bad	-1.58	-4.54	
58	94	gain	1081.5611705	1081.5619706	1085.1928032000003	1085.2008293000001	3.6308326000003035	0.6	0	1.33	bottom	right	left	safe	good	0.6	-3.94	
59	84	gain	1092.5829449999999	1092.5836615	1095.8039054000003	1095.8108912	3.2202439000002414	0.5	0	1.11	bottom	right	left	safe	bad	0.5	-3.44	
60	60	gain	1103.1241482000003	1103.1297804000003	1106.1980899000002	1106.2013472	3.068309499999941	0.2	0	1	top	left	right	safe	bad	0.2	-3.24	
61	6	mix	1123.1903069000002	1123.1988216000002	1127.9202673000002	1129.9362503	4.721445700000004	0	-0.3	0.25	bottom	left	left	gamble	bad	-0.3	-3.54	
62	106	loss	1135.1219711	1135.1300507000003	1139.7972927000003	1141.8129104000002	4.6672419999999875	-0.2	-0.56	0	bottom	left	left	gamble	bad	-0.56	-4.1	
63	124	loss	1147.0108531000003	1147.0116113000001	1149.708391	1151.7241283	2.6967796999997518	-0.4	-0.89	0	bottom	right	right	gamble	good	0.0	-4.1	
64	20	mix	1167.4162720000002	1167.4235883	1170.4474014	1172.4645598	3.0238131000000976	0	-0.8	0.66	top	left	left	gamble	bad	-0.8	-4.9	
65	69	gain	1177.8716419	1177.8724064	1179.9097564	1179.9172678000002	2.0373500000000604	0.3	0	1.26	bottom	right	left	safe	good	0.3	-4.6	
66	150	loss	1187.1078742000002	1187.115082	1189.6542559000002	1191.6704776	2.5391739000001508	-0.6	-3	0	top	left	left	gamble	good	0.0	-4.6	
67	95	gain	1207.1285748000003	1207.1368512000001	1210.6104429	1210.6189834	3.4735916999998153	0.6	0	1.49	top	left	right	safe	good	0.6	-4.0	
68	88	gain	1218.0349335000003	1218.0357664	1225.7524243	1225.7606590000003	7.716657899999973	0.5	0	1.8	bottom	right	left	safe	bad	0.5	-3.5	
69	22	mix	1233.1343389	1233.1432402000003	1239.8115500000001	1239.8195935	6.668309799999861	0	-1.1	0.22	top	left	right	safe	good	0.0	-3.5	
70	97	gain	1257.1188433	1257.1262531	1259.9337630000002	1259.9412399999999	2.807509900000241	0.6	0	1.9	top	left	right	safe	good	0.6	-2.9	
71	34	mix	1266.9968227000002	1266.9976634000002	1268.9961025999999	1269.0034362	1.998439199999666	0	-1.5	1.5	bottom	right	left	safe	bad	0.0	-2.9	
72	57	gain	1276.2667288	1276.2726801000001	1278.7575491	1280.7728321000002	2.4848689999998896	0.2	0	0.63	top	left	left	gamble	good	0.63	-2.27	
73	103	loss	1295.0645419	1295.0653735000003	1297.9634059000002	1299.9801825000002	2.89803239999992	-0.2	-0.4	0	top	right	right	gamble	bad	-0.4	-2.67	
74	133	loss	1305.0171327	1305.0178957	1306.7428327999999	1306.7497961000001	1.7249370999998064	-0.5	-1	0	bottom	right	left	safe	bad	-0.5	-3.17	
75	17	mix	1313.3202223	1313.3210859000003	1315.7713775	1317.7865858000002	2.450291599999673	0	-0.8	0.32	top	right	right	gamble	bad	-0.8	-3.97	
76	47	mix	1333.7292604000002	1339.1937156000001	1341.2911083000001	1343.3066128000003	2.0973927000000003	0	-1.1	2.2	top	left	left	gamble	bad	-1.1	-5.07	
77	131	loss	1348.5853233999999	1348.5928308	1351.285908	1353.3023509000002	2.6930772000000616	-0.5	-0.84	0	bottom	left	left	gamble	bad	-0.84	-5.91	
78	23	mix	1358.0003106000001	1358.0010541	1361.7295030000002	1363.7467707000003	3.7284489000003305	0	-1.1	0.33	bottom	right	right	gamble	bad	-1.1	-7.01	
79	72	gain	1377.454402	1377.4607469	1383.2352573	1385.2519786999999	5.774510400000054	0.4	0	0.73	top	left	left	gamble	bad	0.0	-7.01	
80	90	gain	1390.5239156999999	1390.5246301	1395.4454575000002	1397.4621414	4.920827400000235	0.5	0	2.5	top	right	right	gamble	bad	0.0	-7.01	
81	107	loss	1402.6534758	1402.6614646	1404.6072613	1406.6229005000002	1.9457966999998462	-0.2	-0.63	0	top	left	left	gamble	good	0.0	-7.01	
82	15	mix	1421.4995953999999	1421.5003515	1424.5972817	1426.6133877	3.0969301999998606	0	-0.8	0.16	top	right	right	gamble	bad	-0.8	-7.81	
83	3	mix	1431.9308584000003	1431.9316188999999	1434.1249753	1436.1415412	2.1933564000000842	0	-0.3	0.12	top	right	right	gamble	bad	-0.3	-8.11	
84	33	mix	1440.9575390000002	1440.9582871	1443.4534322000002	1445.4702371	2.4951451000001725	0	-1.5	1.23	bottom	right	right	gamble	good	1.23	-6.88	
85	49	mix	1461.7948478	1461.7955856	1465.2922925999999	1467.3086	3.4967069999997875	0	-1.5	2.25	bottom	right	right	gamble	good	2.25	-4.63	
86	144	loss	1472.3351319	1472.3359551	1474.5700790000003	1476.5859738000001	2.2341239000002133	-0.6	-1.33	0	bottom	right	right	gamble	bad	-1.33	-5.96	
87	41	mix	1481.7921326000003	1481.8003307000001	1483.9824698	1485.9976067	2.1821390999998584	0	-0.8	0.96	bottom	left	left	gamble	bad	-0.8	-6.76	
88	82	gain	1502.8547678000002	1502.8620481	1507.9199083	1509.9358553	5.05786020000005	0.5	0	0.91	top	left	left	gamble	good	0.91	-5.85	
89	85	gain	1515.402381	1515.4069858	1517.5980331000003	1519.6140621000002	2.191047300000264	0.5	0	1.24	top	left	left	gamble	good	1.24	-4.61	
90	108	loss	1524.3217812999999	1524.3225694	1527.9758892000002	1529.9921205000003	3.6533198000001903	-0.2	-0.72	0	bottom	right	right	gamble	good	0.0	-4.61	
91	68	gain	1545.8323162	1545.8331117999999	1551.7299432000002	1553.7451369000003	5.8968314000003375	0.3	0	1.08	top	right	right	gamble	good	1.08	-3.53	
92	132	loss	1557.7970935	1557.8049009	1562.6742237	1564.6906591	4.869322800000191	-0.5	-0.91	0	top	left	left	gamble	good	0.0	-3.53	
93	101	loss	1569.2024012	1569.211122	1570.4873164000003	1572.5025344000003	1.2761944000003496	-0.2	-0.34	0	bottom	left	left	gamble	bad	-0.34	-3.87	
94	127	loss	1590.0263400000001	1590.0271432000002	1594.1743102000003	1596.190112	4.147167000000081	-0.4	-1.26	0	top	right	right	gamble	good	0.0	-3.87	
95	81	gain	1600.2529755000003	1600.2601892999999	1604.9018671000001	1606.9170526	4.641677800000252	0.5	0	0.84	bottom	left	left	gamble	bad	0.0	-3.87	
96	70	gain	1612.4086906	1612.4161178000002	1615.1964444000002	1615.2038789	2.7803266000000804	0.3	0	1.5	top	left	right	safe	good	0.3	-3.57	
97	7	mix	1632.0201543	1632.0272101000003	1636.6513544000002	1636.6589635000003	4.624144299999898	0	-0.3	0.3	top	left	right	safe	bad	0.0	-3.57	
98	27	mix	1643.8635655	1643.8643528	1645.6469748000002	1647.6622051000002	1.782622000000174	0	-1.1	0.9	top	right	right	gamble	good	0.9	-2.67	
99	29	mix	1652.4774499000002	1652.4781745000003	1656.4247407999999	1658.4408514	3.946566299999631	0	-1.5	0.45	top	right	right	gamble	good	0.45	-2.22	
100	130	loss	1672.4650687	1672.4719049000003	1674.8336686	1676.8479159	2.3617636999997558	-0.4	-2	0	top	left	left	gamble	bad	-2.0	-4.22	
101	117	loss	1682.2843969000003	1682.2851968000002	1685.5427071000001	1687.5587049000003	3.2575102999999217	-0.3	-0.95	0	top	right	right	gamble	bad	-0.95	-5.17	
102	42	mix	1692.0960424000002	1692.0968098	1697.8022708	1697.8061707	5.705461000000014	0	-0.8	1.2	top	right	left	safe	good	0.0	-5.17	
103	75	gain	1713.6440836	1713.6508557	1718.6249837000003	1720.6402279000001	4.974128000000292	0.4	0	0.99	top	left	left	gamble	good	0.99	-4.18	
104	105	loss	1726.117626	1726.124935	1728.1861824999999	1730.2036848999999	2.0612474999998085	-0.2	-0.5	0	top	left	left	gamble	bad	-0.5	-4.68	
105	119	loss	1734.9505064000002	1734.9512369000001	1737.4817458	1739.4978080000003	2.530508899999859	-0.3	-1.26	0	bottom	right	right	gamble	bad	-1.26	-5.94	
106	39	mix	1756.0048588000002	1756.0096454000002	1760.2525561	1762.2689994	4.242910699999811	0	-0.5	0.75	top	left	left	gamble	good	0.75	-5.19	
107	63	gain	1767.4676619	1767.4684111	1775.4470025000003	0	0	0.3	0	0.6	bottom	right	NaN	NaN	Nan	0	-5.19	
108	65	gain	1778.9026535	1778.9034116	1781.6933012000002	1783.7069466	2.7898896000001514	0.3	0	0.74	top	right	right	gamble	bad	0.0	-5.19	
109	54	gain	1799.9477103000002	1799.9484966000002	1802.0475094	1802.0544729	2.099012799999855	0.2	0	0.44	top	right	left	safe	bad	0.2	-4.99	
110	122	loss	1808.6724103	1808.6804769000003	1810.8426505	1812.859272	2.1621735999997327	-0.4	-0.73	0	top	left	left	gamble	bad	-0.73	-5.72	
111	32	mix	1817.8160078000003	1817.8236888	1820.7710384	1822.7862539	2.9473496000000523	0	-1.5	0.99	top	left	left	gamble	good	0.99	-4.73	
112	9	mix	1836.3117987000003	1836.3125281999999	1844.2923658000002	0	0	0	-0.5	0.15	bottom	right	NaN	NaN	Nan	0	-4.73	
113	46	mix	1846.3086863	1846.3167313000001	1847.6896734	1849.7053659	1.3729420999998183	0	-1.1	1.65	bottom	left	left	gamble	good	1.65	-3.08	
114	66	gain	1854.2652068	1854.272748	1855.9685783000002	1857.9847551	1.6958303000001251	0.3	0	0.84	bottom	left	left	gamble	bad	0.0	-3.08	
115	77	gain	1877.6244582000002	1877.6252536	1879.0897298000002	1879.0972933	1.464476200000263	0.4	0	1.26	top	right	left	safe	bad	0.4	-2.68	
116	118	loss	1885.721815	1885.7225613000003	1888.1020299	1890.1178779	2.3794685999996545	-0.3	-1.08	0	top	right	right	gamble	good	0.0	-2.68	
117	52	gain	1894.3807252	1894.3815051	1897.8965084	1897.9035392000003	3.5150032999999894	0.2	0	0.36	top	right	left	safe	bad	0.2	-2.48	
118	43	mix	1915.2367312	1915.2374886	1917.7538228	1917.7614071	2.516334200000074	0	-0.8	1.6	top	right	left	safe	bad	0.0	-2.48	
119	125	loss	1924.5735876	1924.5797522	1926.7320791	1928.7480905	2.1523268999999345	-0.4	-0.99	0	top	left	left	gamble	good	0.0	-2.48	
120	78	gain	1933.5894977	1933.5902164000001	1936.4602497000003	1936.4673575	2.870033300000159	0.4	0	1.44	top	right	left	safe	good	0.4	-2.08	
121	91	gain	1952.4837968	1952.4899847	1958.9814458000003	1958.9896727000003	6.491461100000379	0.6	0	1.01	bottom	left	right	safe	good	0.6	-1.48	
122	62	gain	1966.5133554000001	1966.5191470000002	1969.1421269	1971.1586378	2.622979899999791	0.3	0	0.55	bottom	left	left	gamble	bad	0.0	-1.48	
123	4	mix	1976.5643078	1976.5651327000003	1979.4200430000003	1981.4368986000002	2.8549103000000287	0	-0.3	0.16	top	right	right	gamble	good	0.16	-1.32	
124	99	gain	1995.0626740999999	1995.0634259	1999.2599668	2001.27629	4.196540899999945	0.6	0	2.52	bottom	right	right	gamble	good	2.52	1.2	
125	24	mix	2005.8246442000002	2005.8253662	2008.0382392	2008.0456497000002	2.212872999999945	0	-1.1	0.44	bottom	right	left	safe	bad	0.0	1.2	
126	111	loss	2014.7769650000002	2014.7837004	2017.1502974000002	2019.1668974000002	2.3665970000001835	-0.3	-0.5	0	top	left	left	gamble	bad	-0.5	0.7	
127	16	mix	2035.3078769	2035.3156104000002	2037.28943	2037.2969097000002	1.9738195999998425	0	-0.8	0.24	bottom	left	right	safe	good	0.0	0.7	
128	26	mix	2044.3503613999999	2044.3574448000002	2044.8691043000001	2046.8844740000002	0.5116594999999506	0	-1.1	0.73	bottom	left	left	gamble	bad	-1.1	-0.4	
129	59	gain	2051.7625120000002	2051.7632547000003	2053.2647079	2055.2807794	1.5014531999995597	0.2	0	0.84	bottom	right	right	gamble	good	0.84	0.44	
130	73	gain	2069.3054699000004	2069.3062781999997	2071.6049451999997	2071.611932	2.298667000000023	0.4	0	0.8	bottom	right	left	safe	good	0.4	0.84	
131	145	loss	2078.2807123000002	2078.2891976	2080.100655	2082.1173522999998	1.8114574000001085	-0.6	-1.49	0	top	left	left	gamble	bad	-1.49	-0.65	
132	143	loss	2087.1958813	2087.1965883000003	2089.4123107000005	2091.4280712	2.2157224000002316	-0.6	-1.2	0	top	right	right	gamble	good	0.0	-0.65	
133	61	gain	2106.0192079999997	2106.0260989999997	2110.1181665000004	2110.1272397000002	4.092067500000667	0.3	0	0.5	top	left	right	safe	good	0.3	-0.35	
134	31	mix	2117.0962947999997	2117.1050568	2118.3466364000005	2120.3622766999997	1.2415796000004775	0	-1.5	0.78	bottom	left	left	gamble	bad	-1.5	-1.85	
135	44	mix	2125.0980049	2125.098728	2127.8748679	2127.8820991000002	2.7761399000000893	0	-1.1	1.1	bottom	right	left	safe	good	0.0	-1.85	
136	96	gain	2150.2142866000004	2150.2218657000003	2156.8934639999998	2156.9011640999997	6.671598299999459	0.6	0	1.68	bottom	left	right	safe	bad	0.6	-1.25	
137	40	mix	2164.3994058999997	2164.4001513000003	2167.1546405999998	2167.1620358	2.7544892999994772	0	-0.5	1	top	right	left	safe	good	0.0	-1.25	
138	35	mix	2174.6561338	2174.6638648999997	2177.4492105	2179.4648583999997	2.785345600000255	0	-0.3	0.36	top	left	left	gamble	good	0.36	-0.89	
139	13	mix	2194.6063738000003	2194.6071911999998	2198.5545325000003	2200.5706843999997	3.9473413000005166	0	-0.5	0.41	bottom	right	right	gamble	good	0.41	-0.48	
140	55	gain	2205.1800304999997	2205.1869432000003	2210.7644415000004	2210.7722429000005	5.577498300000116	0.2	0	0.5	top	left	right	safe	good	0.2	-0.28	
141	12	mix	2217.5172946000002	2217.5245833999998	2219.0938677000004	2219.1012914000003	1.5692843000006178	0	-0.5	0.33	bottom	left	right	safe	good	0.0	-0.28	
142	110	loss	2236.0671713	2236.0741619	2240.1821836999998	2240.1904141000005	4.108021799999733	-0.2	-1	0	top	left	right	safe	bad	-0.2	-0.48	
143	2	mix	2247.4108687999997	2247.4116476	2250.8431898	2250.8505076	3.431542199999967	0	-0.3	0.09	top	right	left	safe	bad	0.0	-0.48	
144	136	loss	2257.6170135	2257.6235828	2261.4375280000004	2261.4452438999997	3.8139452000004894	-0.5	-1.4	0	top	left	right	safe	good	-0.5	-0.98	
145	109	loss	2277.2795238	2277.2802398000003	2280.8279376	2282.8440481	3.547697799999696	-0.2	-0.84	0	bottom	right	right	gamble	good	0.0	-0.98	
146	93	gain	2288.0454808000004	2288.0462374	2290.2055800999997	2290.2103724	2.1593426999997973	0.6	0	1.2	top	right	left	safe	bad	0.6	-0.38	
147	138	loss	2297.6228262000004	2297.6235476	2299.9510519000005	2299.9582990999997	2.327504300000328	-0.5	-1.8	0	bottom	right	left	safe	bad	-0.5	-0.88	
148	89	gain	2317.0079693	2317.0152614	2320.2731573	2320.2811393	3.2578959000002214	0.5	0	2.1	top	left	right	safe	bad	0.5	-0.38	
149	86	gain	2327.5229775999996	2327.5272133999997	2329.3683732	2329.3760051	1.8411598000002414	0.5	0	1.4	top	left	right	safe	good	0.5	0.12	
150	53	gain	2336.6743840999998	2336.6751391	2341.4958994999997	2341.5035860999997	4.8207603999999264	0.2	0	0.4	top	right	left	safe	good	0.2	0.32	

Start Time: 11:45:53
End Time: 12:25:10