Round	Trial Num	TrialType	TrialOnset	ChoiceOnset	DecisionOnset	Feedback Onset	RT	Safe Bet	Low Bet	High Bet	High Bet Pos	Gamble Pos	Choice Pos	Gamble Choice	Outcome	Profit	TotalProfit	
1	10	mix	505.92937100026757	505.938653500285	508.8317526001483	508.83950710017234	2.8930990998633206	0	-0.5	0.2	top	left	right	safe	bad	0.0	10.0	
2	131	loss	515.7810244001448	515.790758300107	518.1269582002424	520.1419355003163	2.336199900135398	-0.5	-0.84	0	bottom	left	left	gamble	bad	-0.84	9.16	
3	70	gain	524.8447949001566	524.8504669000395	527.3887758003548	529.4051572000608	2.5383089003153145	0.3	0	1.5	top	left	left	gamble	bad	0.0	9.16	
4	148	loss	541.1142940004356	541.1150586004369	545.1621277001686	545.170220200438	4.047069099731743	-0.6	-2.16	0	bottom	right	left	safe	good	-0.6	8.56	
5	78	gain	552.2136047002859	552.2144159004092	556.6234199004248	558.6391381002031	4.409004000015557	0.4	0	1.44	top	right	right	gamble	bad	0.0	8.56	
6	129	loss	563.1604305002838	563.1611579000019	566.5007249000482	568.516431200318	3.3395670000463724	-0.4	-1.68	0	top	right	right	gamble	good	0.0	8.56	
7	143	loss	579.7117230002768	579.7124535003677	583.2250989000313	583.22980070021	3.5126453996635973	-0.6	-1.2	0	top	right	left	safe	bad	-0.6	7.96	
8	23	mix	590.7386088003404	590.7393723004498	595.5361003000289	597.5522896000184	4.796727999579161	0	-1.1	0.33	bottom	right	right	gamble	bad	-1.1	6.86	
9	146	loss	602.1088748001494	602.115536400117	607.3131576003507	609.328225100413	5.197621200233698	-0.6	-1.68	0	bottom	left	left	gamble	good	0.0	6.86	
10	59	gain	619.6906340001151	619.6913858000189	625.0198795003816	627.0364230000414	5.328493700362742	0.2	0	0.84	bottom	right	right	gamble	good	0.84	7.7	
11	113	loss	632.1541001000442	632.1548691000789	639.5463295001537	639.5541052999906	7.39146040007472	-0.3	-0.6	0	bottom	right	left	safe	bad	-0.3	7.4	
12	43	mix	646.1302487002686	646.1309734000824	650.6062616002746	652.6230398002081	4.4752882001921535	0	-0.8	1.6	top	right	right	gamble	good	1.6	9.0	
13	45	mix	665.3813915001228	665.3900921000168	670.5797050003894	670.5880402000621	5.189612900372595	0	-1.1	1.32	top	left	right	safe	good	0.0	9.0	
14	60	gain	677.3035651003011	677.3105448000133	681.8565494003706	683.8721320000477	4.546004600357264	0.2	0	1	top	left	left	gamble	good	1.0	10.0	
15	46	mix	688.9270625002682	688.936288700439	696.1328053004108	696.1398853003047	7.196516599971801	0	-1.1	1.65	bottom	left	right	safe	bad	0.0	10.0	
16	33	mix	710.8758248002268	710.876627500169	717.0214070002548	719.0380446002819	6.1447795000858605	0	-1.5	1.23	bottom	right	right	gamble	good	1.23	11.23	
17	137	loss	723.9969935002737	724.0068981000222	731.8974283002317	733.913643900305	7.890530200209469	-0.5	-1.58	0	bottom	left	left	gamble	bad	-1.58	9.65	
18	38	mix	738.7110736002214	738.7118038004264	741.3756307000294	741.3832086003385	2.6638268996030092	0	-0.5	0.6	bottom	right	left	safe	bad	0.0	9.65	
19	75	gain	755.9686777000315	755.9740469004028	759.8484376003034	761.8649334004149	3.8743906999006867	0.4	0	0.99	top	left	left	gamble	good	0.99	10.64	
20	103	loss	767.3437666003592	767.3446429003961	773.8585498002358	775.8752492000349	6.51390689983964	-0.2	-0.4	0	top	right	right	gamble	bad	-0.4	10.24	
21	62	gain	780.9127384000458	780.9201645003632	784.1026044003665	786.1183256004006	3.1824399000033736	0.3	0	0.55	bottom	left	left	gamble	bad	0.0	10.24	
22	82	gain	798.0630854000337	798.0706578004174	803.8426992003806	805.8587194001302	5.7720413999632	0.5	0	0.91	top	left	left	gamble	good	0.91	11.15	
23	52	gain	811.3257836000994	811.3265956002288	816.5355293001048	818.5510868001729	5.20893369987607	0.2	0	0.36	top	right	right	gamble	good	0.36	11.51	
24	40	mix	822.859331200365	822.8601328004152	828.862663900014	828.8704693000764	6.002531099598855	0	-0.5	1	top	right	left	safe	good	0.0	11.51	
25	28	mix	842.9209727002308	842.9217672999948	850.8866489003412	0	0	0	-1.5	0.3	top	right	NaN	NaN	Nan	0	11.51	
26	123	loss	853.201548400335	853.202270900365	857.2140322001651	859.2308230004273	4.011761299800128	-0.4	-0.8	0	bottom	right	right	gamble	bad	-0.8	10.71	
27	92	gain	864.1380796004087	864.1388112003915	866.9092106004246	868.9255489003845	2.7703994000330567	0.6	0	1.09	top	right	right	gamble	bad	0.0	10.71	
28	73	gain	879.6700690002181	879.6709221000783	883.5839412002824	883.5923136002384	3.91301910020411	0.4	0	0.8	bottom	right	left	safe	good	0.4	11.11	
29	87	gain	890.2691476000473	890.2749440004118	893.5281495000236	893.5356238000095	3.253205499611795	0.5	0	1.58	bottom	left	right	safe	good	0.5	11.61	
30	124	loss	900.5272968001664	900.528014600277	904.6403326001018	906.6546699004248	4.1123179998248816	-0.4	-0.89	0	bottom	right	right	gamble	good	0.0	11.61	
31	140	loss	917.7486901003867	917.7495905002579	922.6794178001583	922.6878547002561	4.929827299900353	-0.5	-2.5	0	top	right	left	safe	good	-0.5	11.11	
32	53	gain	929.4842127002776	929.484971600119	933.1911517004482	935.2072893003933	3.7061801003292203	0.2	0	0.4	top	right	right	gamble	bad	0.0	11.11	
33	98	gain	939.993313500192	939.994039400015	943.5688039003871	945.5851344000548	3.574764500372112	0.6	0	2.16	bottom	right	right	gamble	bad	0.0	11.11	
34	130	loss	955.7964909002185	955.8018026002683	960.0763566000387	960.0846604001708	4.274553999770433	-0.4	-2	0	top	left	right	safe	good	-0.4	10.71	
35	127	loss	967.5561338001862	967.5574771002866	972.1372490003705	974.1523743001744	4.57977190008387	-0.4	-1.26	0	top	right	right	gamble	good	0.0	10.71	
36	107	loss	978.2147135999985	978.2210017000325	983.7303056004457	983.7347405003384	5.509303900413215	-0.2	-0.63	0	top	left	right	safe	bad	-0.2	10.51	
37	69	gain	997.5243068002164	997.5250706002116	1001.8042882001027	1003.8207963001914	4.279217599891126	0.3	0	1.26	bottom	right	right	gamble	bad	0.0	10.51	
38	134	loss	1008.9675464001484	1008.9683215003461	1013.0154815004207	1013.0229745004326	4.047160000074655	-0.5	-1.11	0	bottom	right	left	safe	bad	-0.5	10.01	
39	27	mix	1019.6474929000251	1019.6482451003976	1023.6433675000444	1023.6482836003415	3.995122399646789	0	-1.1	0.9	top	right	left	safe	bad	0.0	10.01	
40	122	loss	1037.718140500132	1037.7247070004232	1042.0835673003457	1042.0913998000324	4.358860299922526	-0.4	-0.73	0	top	left	right	safe	good	-0.4	9.61	
41	22	mix	1049.0850766003132	1049.0930780000053	1052.7778296000324	1052.7854468002915	3.6847516000270844	0	-1.1	0.22	top	left	right	safe	good	0.0	9.61	
42	6	mix	1060.139848400373	1060.1462501999922	1064.854916700162	1064.8628556001931	4.708666500169784	0	-0.3	0.25	bottom	left	right	safe	good	0.0	9.61	
43	79	gain	1077.8477785000578	1077.8485621004365	1081.262825100217	1083.2789869001135	3.414262999780476	0.4	0	1.68	top	right	right	gamble	good	1.68	11.29	
44	34	mix	1087.8268357003108	1087.8275729999878	1092.5396894002333	1094.5564251001924	4.712116400245577	0	-1.5	1.5	bottom	right	right	gamble	good	1.5	12.79	
45	58	gain	1099.791849900037	1099.792628900148	1104.7666172003374	1106.7822624002583	4.973988300189376	0.2	0	0.72	bottom	right	right	gamble	good	0.72	13.51	
46	84	gain	1117.5099102002569	1117.5107517000288	1121.308473000303	1121.3133885003626	3.7977213002741337	0.5	0	1.11	bottom	right	left	safe	bad	0.5	14.01	
47	49	mix	1128.6026254002936	1128.6035337001085	1131.7693899003789	1131.7765444000252	3.1658562002703547	0	-1.5	2.25	bottom	right	left	safe	bad	0.0	14.01	
48	26	mix	1138.8299607001245	1138.8372601000592	1143.1961395000108	1143.2008791002445	4.358879399951547	0	-1.1	0.73	bottom	left	right	safe	good	0.0	14.01	
49	7	mix	1155.9574397001415	1155.962941300124	1160.8209220003337	1162.8371756002307	4.857980700209737	0	-0.3	0.3	top	left	left	gamble	good	0.3	14.31	
50	64	gain	1168.0137845003046	1168.0219064000994	1172.5645789001137	1174.5797604001127	4.542672500014305	0.3	0	0.67	top	left	left	gamble	good	0.67	14.98	
51	35	mix	1179.1883809003048	1179.1964581003413	1183.6255801003426	1183.6334251002409	4.429122000001371	0	-0.3	0.36	top	left	right	safe	bad	0.0	14.98	
52	142	loss	1197.6188114001416	1197.6196207003668	1202.8820242001675	1204.8980708001181	5.262403499800712	-0.6	-1.09	0	top	right	right	gamble	bad	-1.09	13.89	
53	96	gain	1210.3454390000552	1210.3528872001916	1215.2089364002459	1217.2251473003998	4.856049200054258	0.6	0	1.68	bottom	left	left	gamble	good	1.68	15.57	
54	32	mix	1222.6926517002285	1222.7006773003377	1226.8027986004017	1226.8078380003572	4.102121300064027	0	-1.5	0.99	top	left	right	safe	bad	0.0	15.57	
55	95	gain	1241.195849600248	1241.2041712002829	1246.8916389001533	1248.9075709003955	5.687467699870467	0.6	0	1.49	top	left	left	gamble	bad	0.0	15.57	
56	37	mix	1254.2805595002137	1254.2876252001151	1258.1862664003856	1260.2023064000532	3.8986412002705038	0	-0.3	0.6	bottom	left	left	gamble	bad	-0.3	15.27	
57	24	mix	1264.7792491000146	1264.7800152003765	1268.0137904002331	1268.0215161000378	3.233775199856609	0	-1.1	0.44	bottom	right	left	safe	bad	0.0	15.27	
58	3	mix	1280.3751597004011	1280.3758974000812	1285.3051779000089	1285.313001200091	4.9292804999277	0	-0.3	0.12	top	right	left	safe	good	0.0	15.27	
59	102	loss	1292.1403100001626	1292.1410385002382	1295.882993100211	1297.8992614001036	3.7419545999728143	-0.2	-0.36	0	top	right	right	gamble	good	0.0	15.27	
60	1	mix	1301.9514914001338	1301.954975000117	1304.778297800105	1306.7933784001507	2.823322799988091	0	-0.3	0.06	bottom	left	left	gamble	bad	-0.3	14.97	
61	17	mix	1317.1880646999925	1317.1888364003971	1321.5027732001618	1323.5190833001398	4.313936799764633	0	-0.8	0.32	top	right	right	gamble	bad	-0.8	14.17	
62	118	loss	1328.9865184002556	1328.9872524002567	1334.162200300023	1334.1705646002665	5.174947899766266	-0.3	-1.08	0	top	right	left	safe	bad	-0.3	13.87	
63	72	gain	1340.9723341003992	1340.9799436000176	1345.7399466000497	1347.7551014004275	4.760003000032157	0.4	0	0.73	top	left	left	gamble	bad	0.0	13.87	
64	150	loss	1357.950886900071	1357.9575879001059	1361.7815045001917	1363.796627400443	3.823916600085795	-0.6	-3	0	top	left	left	gamble	good	0.0	13.87	
65	55	gain	1369.1087612002157	1369.115448600147	1371.6094452003017	1373.624755800236	2.4939966001547873	0.2	0	0.5	top	left	left	gamble	bad	0.0	13.87	
66	47	mix	1378.3191274004057	1378.3276871000417	1380.9545634002425	1382.9700216003694	2.62687630020082	0	-1.1	2.2	top	left	left	gamble	bad	-1.1	12.77	
67	97	gain	1396.079144100193	1396.0865603000857	1398.8946593999863	1400.911014500074	2.8080990999005735	0.6	0	1.9	top	left	left	gamble	bad	0.0	12.77	
68	2	mix	1405.9326726002619	1405.9334381003864	1410.0888908002526	1412.105658000335	4.155452699866146	0	-0.3	0.09	top	right	right	gamble	good	0.09	12.86	
69	30	mix	1416.3634389000945	1416.3710052003153	1419.9002807000652	1419.9075918002054	3.5292754997499287	0	-1.5	0.6	top	left	right	safe	good	0.0	12.86	
70	67	gain	1432.593179400079	1432.5939823002554	1435.2426808001474	1437.2578612002544	2.648698499891907	0.3	0	0.95	top	right	right	gamble	bad	0.0	12.86	
71	42	mix	1442.4302156004123	1442.430942100007	1445.5705451001413	1447.585750900209	3.1396030001342297	0	-0.8	1.2	top	right	right	gamble	bad	-0.8	12.06	
72	31	mix	1452.7917555002496	1452.7985871001147	1455.8646285003051	1457.881514500361	3.066041400190443	0	-1.5	0.78	bottom	left	left	gamble	bad	-1.5	10.56	
73	25	mix	1469.007879700046	1469.014492300339	1473.2221464002505	1473.2304489002563	4.207654099911451	0	-1.1	0.57	top	left	right	safe	bad	0.0	10.56	
74	104	loss	1480.3959322003648	1480.3968142000958	1484.8490246003494	1484.8534813001752	4.452210400253534	-0.2	-0.44	0	top	right	left	safe	bad	-0.2	10.36	
75	61	gain	1491.587476100307	1491.594324100297	1493.8107150001451	1495.8279275000095	2.216390899848193	0.3	0	0.5	top	left	left	gamble	bad	0.0	10.36	
76	106	loss	1507.3377050003037	1543.2784510999918	1547.149333700072	1547.1539882002398	3.870882600080222	-0.2	-0.56	0	bottom	left	right	safe	good	-0.2	10.16	
77	8	mix	1554.3775541000068	1554.3784632002935	1558.6937276003882	1558.7019814001396	4.3152644000947475	0	-0.5	0.1	bottom	right	left	safe	bad	0.0	10.16	
78	141	loss	1565.5048953001387	1565.5123976003379	1565.7904054000974	1558.7019814001396	0.2780077997595072	-0.6	-1.01	0	bottom	left	skip	skip	bad	0.0	10.16	
79	85	gain	2121.797487700358	2121.8051691004075	2125.1785503001884	2127.193649200257	3.3733811997808516	0.5	0	1.24	top	left	left	gamble	good	1.24	11.4	
80	116	loss	2131.9015939002857	2131.9078674004413	2135.1057207002304	2137.1223331000656	3.1978532997891307	-0.3	-0.84	0	bottom	left	left	gamble	bad	-0.84	10.56	
81	71	gain	2142.339558900334	2142.3470678003505	2146.6170956999995	2146.6244152002037	4.270027899648994	0.4	0	0.67	bottom	left	right	safe	bad	0.4	10.96	
82	39	mix	2161.30917150015	2161.3166224001907	2164.7070606001653	2146.6244152002037	3.3904381999745965	0	-0.5	0.75	top	left	skip	skip	bad	0.4	10.96	
83	66	gain	2338.3903061002493	2338.3972323001362	2341.563743600156	2343.5794284003787	3.16651130001992	0.3	0	0.84	bottom	left	left	gamble	bad	0.0	10.96	
84	63	gain	2348.9108900004067	2348.9116428000852	2351.542283100076	2353.5580056002364	2.630640299990773	0.3	0	0.6	bottom	right	right	gamble	good	0.6	11.56	
85	112	loss	2363.7866051001474	2363.7939381999895	2368.149639200419	2370.1653867000714	4.35570100042969	-0.3	-0.55	0	bottom	left	left	gamble	bad	-0.55	11.01	
86	126	loss	2375.479578300379	2375.487122400198	2383.4427694003098	0	0	-0.4	-1.12	0	bottom	left	left	gamble	NaN	0	11.01	
87	115	loss	2387.000338200014	2387.001066900324	2389.1226179003716	2391.138162500225	2.121551000047475	-0.3	-0.74	0	top	right	right	gamble	bad	-0.74	10.27	
88	139	loss	2402.6642769002356	2402.672683800105	2404.780910000205	2404.7882155003026	2.1082262001000345	-0.5	-2.1	0	top	left	right	safe	bad	-0.5	9.77	
89	99	gain	2411.9622110002674	2411.9629441001453	2414.6417847000994	2416.6586709003896	2.6788405999541283	0.6	0	2.52	bottom	right	right	gamble	good	2.52	12.29	
90	114	loss	2421.206259800121	2421.2125310003757	2423.570281600114	2423.574698800221	2.3577505997382104	-0.3	-0.67	0	top	left	right	safe	bad	-0.3	11.99	
91	13	mix	2435.1652891002595	2435.1661227000877	2437.91288660001	2437.9204603000544	2.746763899922371	0	-0.5	0.41	bottom	right	left	safe	bad	0.0	11.99	
92	56	gain	2444.5360656999983	2444.542349100113	2447.074741900433	2449.0903507000767	2.53239280031994	0.2	0	0.56	bottom	left	left	gamble	bad	0.0	11.99	
93	90	gain	2454.5219835001044	2454.5227202000096	2456.9866243000142	2456.994251600001	2.4639041000045836	0.5	0	2.5	top	right	left	safe	good	0.5	12.49	
94	11	mix	2519.903283300344	2519.911020600237	2523.3353087003343	2525.351143400185	3.4242881000973284	0	-0.5	0.26	top	left	left	gamble	bad	-0.5	11.99	
95	21	mix	2530.2073309002444	2530.2132338001393	2533.279694700148	2535.2951399004087	3.0664609000086784	0	-0.8	0.8	bottom	left	left	gamble	good	0.8	12.79	
96	51	gain	2540.5326212001964	2540.5397008000873	2543.174175700173	2545.1907953000627	2.634474900085479	0.2	0	0.34	bottom	left	left	gamble	bad	0.0	12.79	
97	108	loss	2555.717515300028	2555.7182488003746	2558.5022299000993	2560.5150356004015	2.7839810997247696	-0.2	-0.72	0	bottom	right	right	gamble	good	0.0	12.79	
98	93	gain	2565.516730900388	2565.5174519000575	2568.244123500306	2568.2513495003805	2.7266716002486646	0.6	0	1.2	top	right	left	safe	bad	0.6	13.39	
99	77	gain	2575.6692131003365	2575.669968600385	2578.2221346003935	2578.229790700134	2.552166000008583	0.4	0	1.26	top	right	left	safe	bad	0.4	13.79	
100	48	mix	2617.66818960011	2617.66895140009	2620.5996833001263	2622.6156249004416	2.930731900036335	0	-1.5	1.8	bottom	right	right	gamble	bad	-1.5	12.29	
101	91	gain	2627.3834617002867	2627.389669000171	2630.0453128004447	2632.060965300072	2.6556438002735376	0.6	0	1.01	bottom	left	left	gamble	bad	0.0	12.29	
102	105	loss	2637.536409500055	2637.5431460002437	2640.9723403002135	2642.988013900351	3.429194299969822	-0.2	-0.5	0	top	left	left	gamble	bad	-0.5	11.79	
103	86	gain	2652.766516200267	2652.7742592003196	2654.9654873004183	2656.98176550027	2.1912281000986695	0.5	0	1.4	top	left	left	gamble	bad	0.0	11.79	
104	88	gain	2662.25289970031	2662.2536262003705	2664.2771722003818	2666.293931600172	2.0235460000112653	0.5	0	1.8	bottom	right	right	gamble	good	1.8	13.59	
105	80	gain	2671.6301908004098	2671.6351097002625	2674.0052869003266	2676.02161470009	2.370177200064063	0.4	0	2	top	left	left	gamble	bad	0.0	13.59	
106	76	gain	2687.282448900398	2687.2880937000737	2691.5622999002226	2691.5700850002468	4.27420620014891	0.4	0	1.12	bottom	left	right	safe	good	0.4	13.99	
107	50	mix	2698.5409539001994	2698.5487956004217	2702.623663800303	2704.639115100261	4.074868199881166	0	-1.5	3	top	left	left	gamble	good	3.0	16.99	
108	120	loss	2710.034620300401	2710.040032100398	2713.517312100157	2715.533110400196	3.4772799997590482	-0.3	-1.5	0	top	left	left	gamble	bad	-1.5	15.49	
109	133	loss	2727.476860700175	2727.4777143001556	2731.7577556003816	2731.7660161000676	4.280041300226003	-0.5	-1	0	bottom	right	left	safe	bad	-0.5	14.99	
110	12	mix	2738.3357202000916	2738.343082000036	2741.3697656001896	2743.3854067004286	3.026683600153774	0	-0.5	0.33	bottom	left	left	gamble	bad	-0.5	14.49	
111	15	mix	2748.413015300408	2748.4137856001034	2752.580165600404	2754.5957643003203	4.166380000300705	0	-0.8	0.16	top	right	right	gamble	bad	-0.8	13.69	
112	89	gain	2764.6067321002483	2764.613856300246	2767.2894971002825	2769.305522000417	2.67564080003649	0.5	0	2.1	top	left	left	gamble	good	2.1	15.79	
113	54	gain	2774.5123565001413	2774.513092700392	2777.883909900207	2779.8991694003344	3.3708171998150647	0.2	0	0.44	top	right	right	gamble	good	0.44	16.23	
114	74	gain	2783.977316000033	2783.9780852003023	2786.262793400325	2786.2704419000074	2.2847082000225782	0.4	0	0.89	bottom	right	left	safe	bad	0.4	16.63	
115	121	loss	2798.889068500139	2798.895261700265	2802.5542389000766	2804.5694356001914	3.6589771998114884	-0.4	-0.67	0	bottom	left	left	gamble	good	0.0	16.63	
116	101	loss	2809.202351300046	2809.2084969002753	2813.531850400381	2813.5397940003313	4.323353500105441	-0.2	-0.34	0	bottom	left	right	safe	good	-0.2	16.43	
117	5	mix	2821.0922735002823	2821.0994907002896	2826.05853330018	2826.0662448001094	4.959042599890381	0	-0.3	0.2	top	left	right	safe	good	0.0	16.43	
118	36	mix	2839.7177962004207	2839.7217711000703	2842.050014000386	2844.0662323003635	2.328242900315672	0	-0.3	0.45	top	left	left	gamble	bad	-0.3	16.13	
119	138	loss	2848.9820367000066	2848.9827943001874	2852.4273375002667	2854.4441272001714	3.4445432000793517	-0.5	-1.8	0	bottom	right	right	gamble	good	0.0	16.13	
120	144	loss	2859.9257259001024	2859.926454000175	2863.421595700085	2863.4289194000885	3.495141699910164	-0.6	-1.33	0	bottom	right	left	safe	good	-0.6	15.53	
121	65	gain	2877.3643744001165	2877.365132700186	2881.7292955000885	2883.744288300164	4.36416279990226	0.3	0	0.74	top	right	right	gamble	bad	0.0	15.53	
122	29	mix	2888.887272500433	2888.8880030000582	2891.5072078001685	2891.51472090045	2.6192048001103103	0	-1.5	0.45	top	right	left	safe	bad	0.0	15.53	
123	68	gain	2898.929640599992	2898.930416500196	2901.7679734001867	2903.783899600152	2.8375568999908864	0.3	0	1.08	top	right	right	gamble	good	1.08	16.61	
124	147	loss	2914.3792857001536	2914.3875532001257	2919.1586025003344	2919.1625780002214	4.771049300208688	-0.6	-1.9	0	top	left	right	safe	good	-0.6	16.01	
125	100	gain	2926.086813600268	2926.0938559002243	2928.870897200424	2930.886007199995	2.777041300199926	0.6	0	3	top	left	left	gamble	good	3.0	19.01	
126	16	mix	2936.3518826002255	2936.360038800165	2939.1488373000175	2939.156586400233	2.788798499852419	0	-0.8	0.24	bottom	left	right	safe	good	0.0	19.01	
127	14	mix	2952.1577213001437	2952.1632541003637	2956.223211200442	2958.238720500376	4.0599571000784636	0	-0.5	0.5	top	left	left	gamble	good	0.5	19.51	
128	20	mix	2962.786216000095	2962.7925181002356	2965.3182777003385	2965.325242300052	2.5257596001029015	0	-0.8	0.66	top	left	right	safe	good	0.0	19.51	
129	18	mix	2972.7415934000164	2972.7423576000147	2975.5295797004364	2975.5371259003878	2.7872221004217863	0	-0.8	0.42	top	right	left	safe	bad	0.0	19.51	
130	109	loss	2989.6044809999876	2989.6053169001825	2993.3201147001237	2995.335330000147	3.7147977999411523	-0.2	-0.84	0	bottom	right	right	gamble	good	0.0	19.51	
131	110	loss	3000.5377421001904	3000.5446909000166	3004.197795400396	3004.205068500247	3.6531045003794134	-0.2	-1	0	top	left	right	safe	bad	-0.2	19.31	
132	4	mix	3011.4290642002597	3011.429824199993	3014.7254354003817	3014.733003400266	3.295611200388521	0	-0.3	0.16	top	right	left	safe	bad	0.0	19.31	
133	19	mix	3027.3861216004007	3027.386859100312	3030.0003422000445	3032.017164300196	2.613483099732548	0	-0.8	0.53	bottom	right	right	gamble	bad	-0.8	18.51	
134	94	gain	3037.475555300247	3037.4762865002267	3040.178188400343	3042.1944334004074	2.7019019001163542	0.6	0	1.33	bottom	right	right	gamble	bad	0.0	18.51	
135	9	mix	3047.5472119003534	3047.548151700292	3050.639892200008	3050.645089900121	3.091740499716252	0	-0.5	0.15	bottom	right	left	safe	bad	0.0	18.51	
136	83	gain	3062.0346975000575	3062.0354571002536	3065.5486878002994	3067.5638921000063	3.513230700045824	0.5	0	1	bottom	right	right	gamble	good	1.0	19.51	
137	81	gain	3073.0601075002924	3073.065661200322	3076.7091156002134	3076.715765000321	3.6434543998911977	0.5	0	0.84	bottom	left	right	safe	good	0.5	20.01	
138	44	mix	3084.2437072000466	3084.2444371003658	3087.0867981002666	3087.094161200337	2.8423609999008477	0	-1.1	1.1	bottom	right	left	safe	good	0.0	20.01	
139	125	loss	3100.281037100125	3100.2869872003794	3104.061214600224	3106.0768817001954	3.7742273998446763	-0.4	-0.99	0	top	left	left	gamble	good	0.0	20.01	
140	117	loss	3110.9204053999856	3110.921136600431	3114.5728532001376	3114.580379500054	3.6517165997065604	-0.3	-0.95	0	top	right	left	safe	good	-0.3	19.71	
141	149	loss	3121.155303200241	3121.1560297003016	3126.2500297003426	3128.265759100206	5.094000000040978	-0.6	-2.52	0	bottom	right	right	gamble	good	0.0	19.71	
142	132	loss	3139.3260608003475	3139.3329711002298	3142.874085200019	3142.8816818003543	3.541114099789411	-0.5	-0.91	0	top	left	right	safe	bad	-0.5	19.21	
143	145	loss	3149.4242669004016	3149.4312241002917	3154.1853575003333	3154.1935123000294	4.75413340004161	-0.6	-1.49	0	top	left	right	safe	good	-0.6	18.61	
144	119	loss	3161.3071710001677	3161.30789560033	3165.662543100305	3167.6785278003663	4.354647499974817	-0.3	-1.26	0	bottom	right	right	gamble	bad	-1.26	17.35	
145	111	loss	3178.222450500354	3178.2293532001786	3182.9695980004035	3184.985132700298	4.7402448002249	-0.3	-0.5	0	top	left	left	gamble	bad	-0.5	16.85	
146	57	gain	3190.4014827003703	3190.4087591003627	3193.0647400002927	3195.0807976000942	2.6559808999300003	0.2	0	0.63	top	left	left	gamble	good	0.63	17.48	
147	41	mix	3200.0488264001906	3200.0575392004102	3203.176010400057	3205.19237370044	3.118471199646592	0	-0.8	0.96	bottom	left	left	gamble	bad	-0.8	16.68	
148	136	loss	3217.800623100251	3217.8087332001887	3220.5835221000016	3220.590639900416	2.7747888998128474	-0.5	-1.4	0	top	left	right	safe	good	-0.5	16.18	
149	128	loss	3227.452766000293	3227.4534848001786	3231.1936257001944	3231.1983155002818	3.740140900015831	-0.4	-1.44	0	top	right	left	safe	good	-0.4	15.78	
150	135	loss	3238.7144416002557	3238.7192750000395	3242.0051025003195	3244.0218483000062	3.285827500279993	-0.5	-1.24	0	top	left	left	gamble	good	0.0	15.78	
151	141	loss	3255.515488100238	3255.524639100302	3259.3129869000986	3259.320934700314	3.788347799796611	-0.6	-1.01	0	bottom	left	right	safe	good	-0.6	15.18	
152	39	mix	3265.9784898003563	3265.9857004000805	3269.658563400153	3269.6658066003583	3.672863000072539	0	-0.5	0.75	top	left	right	safe	bad	0.0	15.18	

Start Time: 09:58:16
End Time: 10:52:53