Round	Trial Num	TrialType	TrialOnset	ChoiceOnset	DecisionOnset	Feedback Onset	RT	Safe Bet	Low Bet	High Bet	High Bet Pos	Gamble Pos	Choice Pos	Gamble Choice	Outcome	Profit	TotalProfit	
1	99	gain	319.88961940072477	319.89218720048666	322.49628919921815	324.5125590004027	2.604101998731494	0.6	0	2.52	bottom	right	right	gamble	good	2.52	12.52	
2	91	gain	329.0655843000859	329.0740546993911	331.24171889945865	331.24621840007603	2.16766420006752	0.6	0	1.01	bottom	left	right	safe	good	0.6	13.12	
3	103	loss	338.75786199979484	338.7586573008448	339.97056009992957	339.9751772992313	1.2119027990847826	-0.2	-0.4	0	top	right	left	safe	good	-0.2	12.92	
4	76	gain	355.6792421005666	355.6868179999292	356.97814819961786	358.9947586003691	1.291330199688673	0.4	0	1.12	bottom	left	left	gamble	bad	0.0	12.92	
5	58	gain	363.92687929980457	363.92771169915795	365.5069804992527	367.523928899318	1.5792688000947237	0.2	0	0.72	bottom	right	right	gamble	good	0.72	13.64	
6	20	mix	372.7542297001928	372.7648598998785	374.6687543001026	374.67330529913306	1.9038944002240896	0	-0.8	0.66	top	left	right	safe	good	0.0	13.64	
7	95	gain	389.177929000929	389.1868488006294	390.82902069948614	392.84308259934187	1.642171898856759	0.6	0	1.49	top	left	left	gamble	bad	0.0	13.64	
8	98	gain	398.2101415004581	398.2109783999622	399.855092599988	401.8718710001558	1.644114200025797	0.6	0	2.16	bottom	right	right	gamble	bad	0.0	13.64	
9	93	gain	406.4597290996462	406.4606357999146	408.38427310064435	410.40060270018876	1.9236373007297516	0.6	0	1.2	top	right	right	gamble	good	1.2	14.84	
10	114	loss	423.14265820011497	423.1513061001897	425.80807740055025	427.8243361003697	2.6567713003605604	-0.3	-0.67	0	top	left	left	gamble	good	0.0	14.84	
11	141	loss	432.60743710026145	432.61611719988286	434.1036651004106	436.11994270049036	1.4875479005277157	-0.6	-1.01	0	bottom	left	left	gamble	bad	-1.01	13.83	
12	83	gain	440.73671980015934	440.73773650079966	442.1165235992521	444.13336809910834	1.3787870984524488	0.5	0	1	bottom	right	right	gamble	good	1.0	14.83	
13	41	mix	457.04275679960847	457.0509428009391	458.008038200438	460.02487690001726	0.9570953994989395	0	-0.8	0.96	bottom	left	left	gamble	bad	-0.8	14.03	
14	61	gain	465.2222621999681	465.2294632997364	466.9363433998078	466.9409583006054	1.7068801000714302	0.3	0	0.5	top	left	right	safe	good	0.3	14.33	
15	69	gain	473.90726480074227	473.90802990086377	475.16567079909146	477.1818867009133	1.2576408982276917	0.3	0	1.26	bottom	right	right	gamble	bad	0.0	14.33	
16	11	mix	489.4754275996238	489.4843147993088	490.8740193005651	492.89030260033906	1.3897045012563467	0	-0.5	0.26	top	left	left	gamble	bad	-0.5	13.83	
17	97	gain	497.7482935991138	497.75669080019	499.45279680006206	501.4686763994396	1.6961059998720884	0.6	0	1.9	top	left	left	gamble	bad	0.0	13.83	
18	2	mix	506.49191229976714	506.4927457999438	510.59659340046346	512.6131574008614	4.103847600519657	0	-0.3	0.09	top	right	right	gamble	good	0.09	13.92	
19	135	loss	524.8062529992312	524.8151728007942	525.8385329004377	527.8551589008421	1.0233600996434689	-0.5	-1.24	0	top	left	left	gamble	good	0.0	13.92	
20	134	loss	533.2478349003941	533.2486694995314	534.1844359003007	536.2006899006665	0.9357664007693529	-0.5	-1.11	0	bottom	right	right	gamble	good	0.0	13.92	
21	101	loss	540.8041762001812	540.8123594000936	543.0627482999116	545.0794227998704	2.250388899818063	-0.2	-0.34	0	bottom	left	left	gamble	bad	-0.34	13.58	
22	72	gain	558.4218889009207	558.4287334997207	559.3877683002502	561.4045023005456	0.95903480052948	0.4	0	0.73	top	left	left	gamble	bad	0.0	13.58	
23	131	loss	566.675613200292	566.6824073996395	567.8833207990974	567.8878664001822	1.2009133994579315	-0.5	-0.84	0	bottom	left	right	safe	good	-0.5	13.08	
24	50	mix	574.6196363996714	574.6277492996305	576.9785031992942	578.9945855997503	2.3507538996636868	0	-1.5	3	top	left	left	gamble	good	3.0	16.08	
25	85	gain	590.8373943995684	590.8461844995618	592.8198348004371	594.836882699281	1.9736503008753061	0.5	0	1.24	top	left	left	gamble	good	1.24	17.32	
26	110	loss	599.5431450009346	599.5509971994907	601.81533879973	601.8198851998895	2.264341600239277	-0.2	-1	0	top	left	right	safe	bad	-0.2	17.12	
27	145	loss	609.0398203991354	609.0471263993531	610.8602088000625	612.8766425997019	1.8130824007093906	-0.6	-1.49	0	top	left	left	gamble	bad	-1.49	15.63	
28	57	gain	624.8691256009042	624.8775881007314	626.6519192997366	628.6687819994986	1.7743311990052462	0.2	0	0.63	top	left	left	gamble	good	0.63	16.26	
29	7	mix	633.6367504000664	633.644290799275	635.6141625996679	635.6184119991958	1.9698718003928661	0	-0.3	0.3	top	left	right	safe	bad	0.0	16.26	
30	79	gain	642.8099213000387	642.8107743002474	644.8090106006712	646.8261280991137	1.9982363004237413	0.4	0	1.68	top	right	right	gamble	good	1.68	17.94	
31	125	loss	658.0026372000575	658.0102468002588	660.567634800449	660.5718713998795	2.557388000190258	-0.4	-0.99	0	top	left	right	safe	bad	-0.4	17.54	
32	4	mix	667.448573699221	667.4493480008096	669.6794684007764	671.6958891991526	2.230120399966836	0	-0.3	0.16	top	right	right	gamble	good	0.16	17.7	
33	38	mix	675.7228424996138	675.7236336991191	678.0417279992253	680.0583309996873	2.318094300106168	0	-0.5	0.6	bottom	right	right	gamble	good	0.6	18.3	
34	121	loss	691.6682188007981	691.6739918999374	693.9499833993614	693.9543344993144	2.2759914994239807	-0.4	-0.67	0	bottom	left	right	safe	bad	-0.4	17.9	
35	47	mix	700.5945043005049	700.602990500629	702.8786319997162	704.8942661993206	2.2756414990872145	0	-1.1	2.2	top	left	left	gamble	bad	-1.1	16.8	
36	140	loss	710.1703884992748	710.1712370999157	712.5235075000674	714.5403402000666	2.3522704001516104	-0.5	-2.5	0	top	right	right	gamble	bad	-2.5	14.3	
37	100	gain	725.6672086007893	725.6742605008185	728.165233200416	730.1819713003933	2.490972699597478	0.6	0	3	top	left	left	gamble	good	3.0	17.3	
38	12	mix	735.6475641001016	735.6555161997676	737.0935085006058	737.0980069003999	1.437992300838232	0	-0.5	0.33	bottom	left	right	safe	good	0.0	17.3	
39	51	gain	744.1451799999923	744.1529895998538	747.9047989007086	749.9215971007943	3.751809300854802	0.2	0	0.34	bottom	left	left	gamble	bad	0.0	17.3	
40	49	mix	761.3153102006763	761.3160986993462	763.2796308007091	765.2968359999359	1.9635321013629436	0	-1.5	2.25	bottom	right	right	gamble	good	2.25	19.55	
41	84	gain	770.3231655005366	770.3239430002868	772.0752965006977	774.0915222000331	1.7513535004109144	0.5	0	1.11	bottom	right	right	gamble	good	1.11	20.66	
42	3	mix	779.3681563008577	779.3689408004284	781.4870541002601	781.4915913995355	2.118113299831748	0	-0.3	0.12	top	right	left	safe	good	0.0	20.66	
43	67	gain	795.1969418991357	795.1977261994034	797.111995799467	799.1291272994131	1.9142696000635624	0.3	0	0.95	top	right	right	gamble	bad	0.0	20.66	
44	66	gain	804.3004331998527	804.3063652999699	806.1253134999424	808.1402183994651	1.8189481999725103	0.3	0	0.84	bottom	left	left	gamble	bad	0.0	20.66	
45	56	gain	813.4650842994452	813.4716484006494	815.3358267005533	817.3527355995029	1.8641782999038696	0.2	0	0.56	bottom	left	left	gamble	bad	0.0	20.66	
46	120	loss	829.6293100006878	829.6367926001549	835.4251796007156	835.4296949002892	5.7883870005607605	-0.3	-1.5	0	top	left	right	safe	good	-0.3	20.36	
47	112	loss	842.3413372002542	842.346820300445	848.2846985999495	850.3011751007289	5.9378782995045185	-0.3	-0.55	0	bottom	left	left	gamble	bad	-0.55	19.81	
48	5	mix	855.6173641998321	855.6248509008437	857.9965601991862	860.0125812999904	2.3717092983424664	0	-0.3	0.2	top	left	left	gamble	bad	-0.3	19.51	
49	37	mix	871.3889885991812	871.3951401002705	873.1738910991699	873.1760831996799	1.7787509988993406	0	-0.3	0.6	bottom	left	right	safe	good	0.0	19.51	
50	81	gain	879.7649952992797	879.7723277006298	887.74850670062	0	0	0.5	0	0.84	bottom	left	right	safe	NaN	0	19.51	
51	25	mix	891.7258480004966	891.7342875991017	894.1941094007343	894.1985730994493	2.4598218016326427	0	-1.1	0.57	top	left	right	safe	bad	0.0	19.51	
52	35	mix	909.7866248004138	909.7933483999223	912.2345806006342	914.2512925993651	2.4412322007119656	0	-0.3	0.36	top	left	left	gamble	good	0.36	19.87	
53	111	loss	919.0089253000915	919.0169310998172	920.613500000909	920.6179795991629	1.596568901091814	-0.3	-0.5	0	top	left	right	safe	good	-0.3	19.57	
54	48	mix	928.0590314995497	928.0598999001086	930.7247480992228	932.7411234006286	2.6648481991142035	0	-1.5	1.8	bottom	right	right	gamble	bad	-1.5	18.07	
55	116	loss	944.3018040005118	944.3070294000208	946.6996656991541	948.7160893008113	2.392636299133301	-0.3	-0.84	0	bottom	left	left	gamble	bad	-0.84	17.23	
56	129	loss	953.9337294995785	953.9345452003181	959.1430973000824	959.1473607998341	5.208552099764347	-0.4	-1.68	0	top	right	left	safe	bad	-0.4	16.83	
57	118	loss	965.790115499869	965.7909728996456	967.9214209001511	969.9379837997258	2.1304480005055666	-0.3	-1.08	0	top	right	right	gamble	good	0.0	16.83	
58	21	mix	979.9157052002847	979.9233829006553	982.0308554004878	984.0477086007595	2.107472499832511	0	-0.8	0.8	bottom	left	left	gamble	good	0.8	17.63	
59	13	mix	989.284057399258	989.28486879915	992.1753307003528	994.1918460000306	2.890461901202798	0	-0.5	0.41	bottom	right	right	gamble	good	0.41	18.04	
60	122	loss	998.8002624008805	998.8086991999298	1001.1373490002006	1001.1413499992341	2.328649800270796	-0.4	-0.73	0	top	left	right	safe	good	-0.4	17.64	
61	149	loss	1013.1640818994492	1013.1652447003871	1016.5291597992182	1018.5460931006819	3.3639150988310575	-0.6	-2.52	0	bottom	right	right	gamble	good	0.0	17.64	
62	73	gain	1023.790963999927	1023.7918299008161	1027.1405958998948	1027.1450324002653	3.3487659990787506	0.4	0	0.8	bottom	right	left	safe	good	0.4	18.04	
63	40	mix	1033.8123413007706	1033.8131150007248	1036.8353371992707	1038.852387899533	3.0222221985459328	0	-0.5	1	top	right	right	gamble	bad	-0.5	17.54	
64	133	loss	1050.77850770019	1050.7793569006026	1053.9096939004958	1053.914176499471	3.1303369998931885	-0.5	-1	0	bottom	right	left	safe	bad	-0.5	17.04	
65	30	mix	1060.4789620004594	1060.4868310000747	1062.1219794992357	1062.1261263005435	1.635148499161005	0	-1.5	0.6	top	left	right	safe	good	0.0	17.04	
66	105	loss	1069.6408776007593	1069.6486726999283	1072.1497042998672	1072.1541862003505	2.5010315999388695	-0.2	-0.5	0	top	left	right	safe	good	-0.2	16.84	
67	143	loss	1084.3103147000074	1084.3111607003957	1088.6243686005473	1090.6415066998452	4.31320790015161	-0.6	-1.2	0	top	right	right	gamble	good	0.0	16.84	
68	92	gain	1095.632685000077	1095.6335042007267	1097.0535860992968	1099.0701951999217	1.4200818985700607	0.6	0	1.09	top	right	right	gamble	bad	0.0	16.84	
69	148	loss	1104.0127833001316	1104.0135951004922	1106.6314144991338	1108.6473974008113	2.6178193986415863	-0.6	-2.16	0	bottom	right	right	gamble	bad	-2.16	14.68	
70	28	mix	1119.4419975001365	1119.442833499983	1123.1730113998055	1125.1892444007099	3.7301778998225927	0	-1.5	0.3	top	right	right	gamble	bad	-1.5	13.18	
71	88	gain	1129.854754799977	1129.8555664997548	1131.618586299941	1133.63457830064	1.7630198001861572	0.5	0	1.8	bottom	right	right	gamble	good	1.8	14.98	
72	18	mix	1138.9715723004192	1138.9723905995488	1141.4966461006552	1143.5122187007219	2.5242555011063814	0	-0.8	0.42	top	right	right	gamble	good	0.42	15.4	
73	31	mix	1153.7908382993191	1153.799499599263	1155.5060089994222	1157.5224322006106	1.7065094001591206	0	-1.5	0.78	bottom	left	left	gamble	bad	-1.5	13.9	
74	24	mix	1162.2593441996723	1162.2601491995156	1163.71829039976	1165.73397259973	1.4581412002444267	0	-1.1	0.44	bottom	right	right	gamble	good	0.44	14.34	
75	71	gain	1170.4412928000093	1170.4494131002575	1172.347071500495	1174.363498300314	1.8976584002375603	0.4	0	0.67	bottom	left	left	gamble	good	0.67	15.01	
76	75	gain	1185.540977999568	1191.689379999414	1193.7690651006997	1195.7855287007987	2.079685101285577	0.4	0	0.99	top	left	left	gamble	good	0.99	16.0	
77	147	loss	1201.2637555003166	1201.273040799424	1203.1807525996119	1205.1971305999905	1.9077118001878262	-0.6	-1.9	0	top	left	left	gamble	bad	-1.9	14.1	
78	137	loss	1210.1035472005606	1210.1124951001257	1212.1926169991493	1212.1972346995026	2.080121899023652	-0.5	-1.58	0	bottom	left	right	safe	good	-0.5	13.6	
79	124	loss	1225.2027727998793	1225.2035828009248	1230.1831439007074	1230.1877741999924	4.979561099782586	-0.4	-0.89	0	bottom	right	left	safe	bad	-0.4	13.2	
80	102	loss	1237.199290100485	1237.2001044992357	1240.0445748008788	1242.0609936006367	2.844470301643014	-0.2	-0.36	0	top	right	right	gamble	good	0.0	13.2	
81	36	mix	1246.1138307005167	1246.1226284001023	1247.7905599009246	1249.8066016994417	1.6679315008223057	0	-0.3	0.45	top	left	left	gamble	bad	-0.3	12.9	
82	59	gain	1261.6337567009032	1261.634556600824	1264.1151790991426	1266.1313566993922	2.480622498318553	0.2	0	0.84	bottom	right	right	gamble	good	0.84	13.74	
83	104	loss	1271.2501871008426	1271.2510359995067	1273.9100027997047	1275.9263665005565	2.658966800197959	-0.2	-0.44	0	top	right	right	gamble	good	0.0	13.74	
84	10	mix	1280.1284954994917	1280.1344422008842	1281.6911906003952	1281.695797700435	1.5567483995109797	0	-0.5	0.2	top	left	right	safe	bad	0.0	13.74	
85	44	mix	1296.3483865000308	1296.3491753004491	1298.080584200099	1300.0969878006727	1.7314088996499777	0	-1.1	1.1	bottom	right	right	gamble	bad	-1.1	12.64	
86	54	gain	1305.3827506005764	1305.3835665993392	1307.1754512004554	1309.1924040000886	1.7918846011161804	0.2	0	0.44	top	right	right	gamble	good	0.44	13.08	
87	77	gain	1313.2696551997215	1313.2705016992986	1315.1048969998956	1317.121165400371	1.8343953005969524	0.4	0	1.26	top	right	right	gamble	good	1.26	14.34	
88	23	mix	1328.7144745998085	1328.7152823992074	1331.046189699322	1331.0506696999073	2.3309073001146317	0	-1.1	0.33	bottom	right	left	safe	good	0.0	14.34	
89	89	gain	1337.6248812992126	1337.6326492000371	1339.5420280005783	1341.5580080002546	1.9093788005411625	0.5	0	2.1	top	left	left	gamble	good	2.1	16.44	
90	90	gain	1346.766440199688	1346.7672230992466	1348.9370111003518	1350.9530669003725	2.1697880011051893	0.5	0	2.5	top	right	right	gamble	bad	0.0	16.44	
91	55	gain	1363.7797632999718	1363.785376900807	1366.577696600929	1366.582207199186	2.7923197001218796	0.2	0	0.5	top	left	right	safe	good	0.2	16.64	
92	60	gain	1373.3170462995768	1373.3201215993613	1375.7562028001994	1377.7725227996707	2.436081200838089	0.2	0	1	top	left	left	gamble	good	1.0	17.64	
93	144	loss	1382.8283805008978	1382.8291618004441	1385.5343190003186	1387.5505787003785	2.7051571998745203	-0.6	-1.33	0	bottom	right	right	gamble	bad	-1.33	16.31	
94	68	gain	1401.7259640004486	1401.7267994992435	1403.5415224004537	1405.5578205995262	1.8147229012101889	0.3	0	1.08	top	right	right	gamble	good	1.08	17.39	
95	15	mix	1409.6097883004695	1409.6106387991458	1411.9703032001853	1411.9746422003955	2.359664401039481	0	-0.8	0.16	top	right	left	safe	good	0.0	17.39	
96	126	loss	1419.3028395008296	1419.3103163000196	1423.2644040994346	1425.2807700000703	3.9540877994149923	-0.4	-1.12	0	bottom	left	left	gamble	bad	-1.12	16.27	
97	86	gain	1437.656847100705	1437.6633607000113	1439.3892081994563	1441.404933899641	1.7258474994450808	0.5	0	1.4	top	left	left	gamble	bad	0.0	16.27	
98	29	mix	1446.6757414005697	1446.6765586994588	1451.782660400495	1451.787296000868	5.106101701036096	0	-1.5	0.45	top	right	left	safe	bad	0.0	16.27	
99	138	loss	1459.18662009947	1459.1874068994075	1462.726823400706	1464.7436009999365	3.539416501298547	-0.5	-1.8	0	bottom	right	right	gamble	good	0.0	16.27	
100	82	gain	1476.6537388004363	1476.6577422991395	1478.1020413991064	1480.1181143000722	1.4442990999668837	0.5	0	0.91	top	left	left	gamble	good	0.91	17.18	
101	32	mix	1485.5853653997183	1485.593323500827	1490.4455699007958	1490.450064599514	4.8522463999688625	0	-1.5	0.99	top	left	right	safe	bad	0.0	17.18	
102	19	mix	1497.3575608991086	1497.3583615999669	1500.856388900429	1502.873200500384	3.4980273004621267	0	-0.8	0.53	bottom	right	right	gamble	bad	-0.8	16.38	
103	62	gain	1514.6996173001826	1514.706845600158	1516.864869600162	1518.8811734002084	2.158024000003934	0.3	0	0.55	bottom	left	left	gamble	bad	0.0	16.38	
104	17	mix	1524.2941980008036	1524.2949707005173	1527.192764300853	1529.2093230001628	2.897793600335717	0	-0.8	0.32	top	right	right	gamble	bad	-0.8	15.58	
105	146	loss	1534.6689298003912	1534.6776021998376	1538.1033395007253	1540.1193304993212	3.425737300887704	-0.6	-1.68	0	bottom	left	left	gamble	good	0.0	15.58	
106	107	loss	1551.2804326992482	1551.288536399603	1554.4617327991873	1554.4664206001908	3.1731963995844126	-0.2	-0.63	0	top	left	right	safe	bad	-0.2	15.38	
107	80	gain	1561.7376370001584	1561.7446944005787	1563.7900700997561	1565.8067391999066	2.0453756991773844	0.4	0	2	top	left	left	gamble	bad	0.0	15.38	
108	108	loss	1570.9877371005714	1570.9885354992002	1573.9510788004845	1573.95566139929	2.962543301284313	-0.2	-0.72	0	bottom	right	left	safe	bad	-0.2	15.18	
109	123	loss	1587.3939964994788	1587.394772099331	1589.192976899445	1591.2091626003385	1.7982048001140356	-0.4	-0.8	0	bottom	right	right	gamble	bad	-0.8	14.38	
110	136	loss	1596.1163400001824	1596.124750599265	1598.6383571997285	1600.6551149003208	2.5136066004633904	-0.5	-1.4	0	top	left	left	gamble	bad	-1.4	12.98	
111	96	gain	1605.4823305997998	1605.4887086004019	1607.0172898992896	1609.0340420007706	1.5285812988877296	0.6	0	1.68	bottom	left	left	gamble	good	1.68	14.66	
112	87	gain	1619.8106044009328	1619.8174159005284	1624.824528399855	1626.841251399368	5.0071124993264675	0.5	0	1.58	bottom	left	left	gamble	bad	0.0	14.66	
113	8	mix	1631.793458500877	1631.7942437008023	1635.2856645993888	1635.2899306993932	3.4914208985865116	0	-0.5	0.1	bottom	right	left	safe	bad	0.0	14.66	
114	113	loss	1642.0844611991197	1642.0852492004633	1644.2806346993893	1646.2971206009388	2.1953854989260435	-0.3	-0.6	0	bottom	right	right	gamble	good	0.0	14.66	
115	150	loss	1657.6242517009377	1657.6336607001722	1659.9892602991313	1659.9936203993857	2.3555995989590883	-0.6	-3	0	top	left	right	safe	bad	-0.6	14.06	
116	42	mix	1667.3322947006673	1667.33309870027	1669.0845241993666	1671.101213099435	1.7514254990965128	0	-0.8	1.2	top	right	right	gamble	bad	-0.8	13.26	
117	52	gain	1676.3104889001697	1676.3114068992436	1679.0622888002545	1681.0797215998173	2.750881901010871	0.2	0	0.36	top	right	right	gamble	good	0.36	13.62	
118	6	mix	1691.5899082999676	1691.5981003995985	1694.43770249933	1694.4422906003892	2.8396020997315645	0	-0.3	0.25	bottom	left	right	safe	good	0.0	13.62	
119	142	loss	1701.6486464999616	1701.64945919998	1703.4330375008285	1705.4494365993887	1.7835783008486032	-0.6	-1.09	0	top	right	right	gamble	bad	-1.09	12.53	
120	46	mix	1710.8966196998954	1710.9042154997587	1712.9112557005137	1714.9273423999548	2.007040200755	0	-1.1	1.65	bottom	left	left	gamble	good	1.65	14.18	
121	139	loss	1726.1211408004165	1726.1302159000188	1728.003349000588	1730.0193076003343	1.8731331005692482	-0.5	-2.1	0	top	left	left	gamble	good	0.0	14.18	
122	34	mix	1735.1521279998124	1735.1529520004988	1737.9313265997916	1739.9468341004103	2.7783745992928743	0	-1.5	1.5	bottom	right	right	gamble	good	1.5	15.68	
123	43	mix	1745.1824156995863	1745.1832269001752	1747.0096061006188	1749.0270314998925	1.8263792004436255	0	-0.8	1.6	top	right	right	gamble	good	1.6	17.28	
124	115	loss	1761.1524270996451	1761.153297400102	1764.6672006994486	1766.6841669995338	3.513903299346566	-0.3	-0.74	0	top	right	right	gamble	bad	-0.74	16.54	
125	1	mix	1771.6020253002644	1771.6095662005246	1773.9456650000066	1773.9500414002687	2.336098799481988	0	-0.3	0.06	bottom	left	right	safe	good	0.0	16.54	
126	132	loss	1780.6266112998128	1780.634979499504	1784.8566378001124	1786.8720977008343	4.2216583006083965	-0.5	-0.91	0	top	left	left	gamble	good	0.0	16.54	
127	63	gain	1799.1326379999518	1799.1334616001695	1802.3972539994866	1804.413097500801	3.263792399317026	0.3	0	0.6	bottom	right	right	gamble	good	0.6	17.14	
128	45	mix	1809.6496505998075	1809.6584523003548	1812.7251884993166	1814.7415209002793	3.0667361989617348	0	-1.1	1.32	top	left	left	gamble	bad	-1.1	16.04	
129	106	loss	1819.4484327007085	1819.4568677991629	1822.4699892997742	1822.4745726007968	3.0131215006113052	-0.2	-0.56	0	bottom	left	right	safe	good	-0.2	15.84	
130	130	loss	1836.046553099528	1836.0540286991745	1839.22745780088	1841.243989000097	3.173429101705551	-0.4	-2	0	top	left	left	gamble	bad	-2.0	13.84	
131	16	mix	1846.6809688992798	1846.6887577995658	1848.2897149007767	1848.294101299718	1.6009571012109518	0	-0.8	0.24	bottom	left	right	safe	good	0.0	13.84	
132	117	loss	1855.338972499594	1855.3397499993443	1857.1183134000748	1859.1342463996261	1.7785634007304907	-0.3	-0.95	0	top	right	right	gamble	bad	-0.95	12.89	
133	65	gain	1870.3282650001347	1870.3290551006794	1872.5934797991067	1872.5980291999876	2.2644246984273195	0.3	0	0.74	top	right	left	safe	good	0.3	13.19	
134	26	mix	1879.7702617999166	1879.7772576007992	1881.3222738001496	1881.3268755991012	1.545016199350357	0	-1.1	0.73	bottom	left	right	safe	good	0.0	13.19	
135	22	mix	1888.2159435003996	1888.222460899502	1890.4174483995885	1890.4220071006566	2.1949875000864267	0	-1.1	0.22	top	left	right	safe	good	0.0	13.19	
136	109	loss	1904.2940646000206	1904.2948880996555	1906.575209500268	1908.5920697003603	2.2803214006125927	-0.2	-0.84	0	bottom	right	right	gamble	good	0.0	13.19	
137	119	loss	1913.793537799269	1913.7943146005273	1915.4875360000879	1917.503754299134	1.6932213995605707	-0.3	-1.26	0	bottom	right	right	gamble	bad	-1.26	11.93	
138	94	gain	1922.6985954008996	1922.6994244009256	1924.8158075995743	1926.8328405991197	2.116383198648691	0.6	0	1.33	bottom	right	right	gamble	bad	0.0	11.93	
139	33	mix	1943.0903373993933	1943.09131010063	1946.404501400888	1948.4213430006057	3.3131913002580404	0	-1.5	1.23	bottom	right	right	gamble	good	1.23	13.16	
140	64	gain	1953.3793503995985	1953.3874201998115	1955.6995080001652	1957.7160443998873	2.3120878003537655	0.3	0	0.67	top	left	left	gamble	good	0.67	13.83	
141	14	mix	1962.3239136002958	1962.3314577993006	1963.9451558999717	1963.9497251007706	1.6136981006711721	0	-0.5	0.5	top	left	right	safe	bad	0.0	13.83	
142	78	gain	1976.0224105007946	1976.023235199973	1977.9711278993636	1979.986748399213	1.9478926993906498	0.4	0	1.44	top	right	right	gamble	bad	0.0	13.83	
143	74	gain	1984.5018498003483	1984.5026711001992	1985.616731600836	1987.634009199217	1.1140605006366968	0.4	0	0.89	bottom	right	right	gamble	good	0.89	14.72	
144	27	mix	1992.171090900898	1992.1719336993992	1995.312005199492	1995.316254099831	3.140071500092745	0	-1.1	0.9	top	right	left	safe	bad	0.0	14.72	
145	53	gain	2010.138246100396	2010.1390381995589	2012.9707741998136	2014.9860693998635	2.8317360002547503	0.2	0	0.4	top	right	right	gamble	bad	0.0	14.72	
146	70	gain	2019.7777421995997	2019.7855868991464	2023.8302554003894	2025.8469191994518	4.044668501242995	0.3	0	1.5	top	left	left	gamble	bad	0.0	14.72	
147	128	loss	2030.3999943006784	2030.4008514992893	2033.6749961990863	2035.691301099956	3.2741446997970343	-0.4	-1.44	0	top	right	right	gamble	bad	-1.44	13.28	
148	9	mix	2046.584409499541	2046.5852055009454	2048.3672656994313	2048.3714733999223	1.7820601984858513	0	-0.5	0.15	bottom	right	left	safe	bad	0.0	13.28	
149	127	loss	2054.8982886001468	2054.899077400565	2056.0798367001116	2058.0953200999647	1.1807592995464802	-0.4	-1.26	0	top	right	right	gamble	good	0.0	13.28	
150	39	mix	2062.1584769003093	2062.1661402992904	2063.6758421007544	2063.680035300553	1.5097018014639616	0	-0.5	0.75	top	left	right	safe	bad	0.0	13.28	

Start Time: 12:51:22
End Time: 13:25:58