Round	Trial Num	TrialType	TrialOnset	ChoiceOnset	DecisionOnset	Feedback Onset	RT	Safe Bet	Low Bet	High Bet	High Bet Pos	Gamble Pos	Choice Pos	Gamble Choice	Outcome	Profit	TotalProfit	
1	8	mix	1506.3870048001409	1506.389868600294	1509.9341749995947	1509.9418997997418	3.5443063993006945	0	-0.5	0.1	bottom	right	left	safe	bad	0.0	10.0	
2	101	loss	1516.7567334994674	1516.7657602000982	1521.5285849999636	1523.5447669997811	4.762824799865484	-0.2	-0.34	0	bottom	left	left	gamble	bad	-0.34	9.66	
3	3	mix	1529.063686300069	1529.0645845001563	1530.3092887001112	1532.3229654002935	1.2447041999548674	0	-0.3	0.12	top	right	right	gamble	bad	-0.3	9.36	
4	70	gain	1541.8337848996744	1541.8399871997535	1544.4497151998803	1544.4584532994777	2.609728000126779	0.3	0	1.5	top	left	right	safe	good	0.3	9.66	
5	102	loss	1551.0510144000873	1551.0518988994882	1553.928036100231	1555.9445569999516	2.87613720074296	-0.2	-0.36	0	top	right	right	gamble	good	0.0	9.66	
6	61	gain	1559.9981450997293	1560.0016542002559	1562.6233866997063	1562.6305272998288	2.621732499450445	0.3	0	0.5	top	left	right	safe	good	0.3	9.96	
7	113	loss	1576.8333016000688	1576.8341423003003	1581.480166199617	1583.4957926999778	4.646023899316788	-0.3	-0.6	0	bottom	right	right	gamble	good	0.0	9.96	
8	99	gain	1588.0218299003318	1588.0227370001376	1590.741848600097	1590.749754499644	2.719111599959433	0.6	0	2.52	bottom	right	left	safe	bad	0.6	10.56	
9	97	gain	1597.3356593996286	1597.3428683998063	1600.171224700287	1602.1864758003503	2.8283563004806638	0.6	0	1.9	top	left	left	gamble	bad	0.0	10.56	
10	94	gain	1611.1148512996733	1611.1156689999625	1613.8458011997864	1615.8619996001944	2.7301321998238564	0.6	0	1.33	bottom	right	right	gamble	bad	0.0	10.56	
11	44	mix	1621.2169826999307	1621.2184616997838	1623.4073716001585	1625.4234635997564	2.1889099003747106	0	-1.1	1.1	bottom	right	right	gamble	bad	-1.1	9.46	
12	11	mix	1630.7135642003268	1630.7226056000218	1637.8337191995233	1639.8500346001238	7.11111359950155	0	-0.5	0.26	top	left	left	gamble	bad	-0.5	8.96	
13	1	mix	1649.8614956997335	1649.8681969000027	1651.5922641996294	1653.6092526996508	1.7240672996267676	0	-0.3	0.06	bottom	left	left	gamble	bad	-0.3	8.66	
14	137	loss	1658.275497599505	1658.2882417002693	1660.1717982003465	1660.1793814999983	1.8835565000772476	-0.5	-1.58	0	bottom	left	right	safe	good	-0.5	8.16	
15	47	mix	1667.0175721002743	1667.0592023003846	1670.1997833997011	1670.2076230002567	3.1405810993164778	0	-1.1	2.2	top	left	right	safe	good	0.0	8.16	
16	17	mix	1680.6110244002193	1680.6119261998683	1684.0419014999643	1684.046413199976	3.4299753000959754	0	-0.8	0.32	top	right	left	safe	good	0.0	8.16	
17	32	mix	1691.5369613002986	1691.5443572001532	1694.802951700054	1696.819055300206	3.258594499900937	0	-1.5	0.99	top	left	left	gamble	good	0.99	9.15	
18	88	gain	1701.7100820001215	1701.7109546000138	1704.4149703998119	1704.4224717998877	2.7040157997980714	0.5	0	1.8	bottom	right	left	safe	bad	0.5	9.65	
19	64	gain	1717.191196899861	1717.1998026994988	1719.1072429995984	1719.1152234002948	1.9074403000995517	0.3	0	0.67	top	left	right	safe	bad	0.3	9.95	
20	10	mix	1725.7577099995688	1725.7660386003554	1730.1842233994976	1732.2008831994608	4.418184799142182	0	-0.5	0.2	top	left	left	gamble	good	0.2	10.15	
21	118	loss	1737.1103783994913	1737.1112642996013	1742.7608684999868	1744.777725099586	5.649604200385511	-0.3	-1.08	0	top	right	right	gamble	good	0.0	10.15	
22	69	gain	1755.0717247994617	1755.0726172002032	1758.6199155999348	1760.635678799823	3.547298399731517	0.3	0	1.26	bottom	right	right	gamble	bad	0.0	10.15	
23	104	loss	1765.7900694999844	1765.7909634998068	1770.8295008996502	1772.8456060001627	5.038537399843335	-0.2	-0.44	0	top	right	right	gamble	good	0.0	10.15	
24	107	loss	1777.0419391002506	1777.0509510999545	1781.4742877995595	1783.4898442998528	4.423336699604988	-0.2	-0.63	0	top	left	left	gamble	good	0.0	10.15	
25	105	loss	1795.316987999715	1795.32181819994	1797.7317637000233	1797.7397806001827	2.4099455000832677	-0.2	-0.5	0	top	left	right	safe	good	-0.2	9.95	
26	150	loss	1804.522531799972	1804.5290128998458	1807.0600805999711	1807.0674646003172	2.531067700125277	-0.6	-3	0	top	left	right	safe	bad	-0.6	9.35	
27	37	mix	1814.4198000002652	1814.428573800251	1816.1725768996403	1818.1886847997084	1.7440030993893743	0	-0.3	0.6	bottom	left	left	gamble	bad	-0.3	9.05	
28	4	mix	1828.1157272998244	1828.1166465999559	1830.5168850999326	1832.5304156001657	2.4002384999766946	0	-0.3	0.16	top	right	right	gamble	good	0.16	9.21	
29	95	gain	1836.5598315000534	1836.569130900316	1838.5441442998126	1838.5514938002452	1.9750133994966745	0.6	0	1.49	top	left	right	safe	good	0.6	9.81	
30	71	gain	1845.967753299512	1845.9766868995503	1848.1717389998958	1848.179839800112	2.1950521003454924	0.4	0	0.67	bottom	left	right	safe	bad	0.4	10.21	
31	74	gain	1858.2005286002532	1858.2013739999384	1860.5814384995028	1862.59834869951	2.380064499564469	0.4	0	0.89	bottom	right	right	gamble	good	0.89	11.1	
32	135	loss	1867.1369286002591	1867.145252299495	1870.8103737002239	1870.8175590001047	3.6651214007288218	-0.5	-1.24	0	top	left	right	safe	bad	-0.5	10.6	
33	110	loss	1878.2539617996663	1878.2604890000075	1880.638443400152	1880.646304300055	2.3779544001445174	-0.2	-1	0	top	left	right	safe	bad	-0.2	10.4	
34	25	mix	1894.281652899459	1894.2901809001341	1897.5623006001115	1899.579105399549	3.2721196999773383	0	-1.1	0.57	top	left	left	gamble	good	0.57	10.97	
35	103	loss	1904.7382378000766	1904.7391195995733	1907.706425299868	1907.7109390003607	2.9673057002946734	-0.2	-0.4	0	top	right	left	safe	good	-0.2	10.77	
36	140	loss	1914.789641899988	1914.7905316995457	1917.185780200176	1917.193689899519	2.3952485006302595	-0.5	-2.5	0	top	right	left	safe	good	-0.5	10.27	
37	59	gain	1927.0143977003172	1927.0152442995459	1930.8452431997284	1930.8531229998916	3.829998900182545	0.2	0	0.84	bottom	right	left	safe	bad	0.2	10.47	
38	146	loss	1938.0161932995543	1938.0257051000372	1941.2562857996672	1943.272297299467	3.2305806996300817	-0.6	-1.68	0	bottom	left	left	gamble	good	0.0	10.47	
39	63	gain	1947.885432199575	1947.8862976999953	1949.9538089996204	1949.9610834000632	2.067511299625039	0.3	0	0.6	bottom	right	left	safe	bad	0.3	10.77	
40	78	gain	1960.3969753999263	1960.3978148000315	1962.3125721998513	1964.3280739998445	1.9147573998197913	0.4	0	1.44	top	right	right	gamble	bad	0.0	10.77	
41	76	gain	1968.8506351998076	1968.8603012003005	1970.8065398996696	1970.810056399554	1.9462386993691325	0.4	0	1.12	bottom	left	right	safe	good	0.4	11.17	
42	121	loss	1977.7625842997804	1977.7714911997318	1980.4189993999898	1980.4261718997732	2.6475082002580166	-0.4	-0.67	0	bottom	left	right	safe	bad	-0.4	10.77	
43	40	mix	1992.8293797997758	1992.8302017003298	1995.7609890000895	1997.7769662998617	2.930787299759686	0	-0.5	1	top	right	right	gamble	bad	-0.5	10.27	
44	83	gain	2003.2650967994705	2003.2659643003717	2005.471877399832	2007.488338000141	2.205913099460304	0.5	0	1	bottom	right	right	gamble	good	1.0	11.27	
45	114	loss	2012.9842598000541	2012.993560699746	2015.7009036997333	2017.7163337999955	2.707342999987304	-0.3	-0.67	0	top	left	left	gamble	good	0.0	11.27	
46	58	gain	2027.3450322998688	2027.3458807999268	2029.8929901001975	2031.9084401996806	2.5471093002706766	0.2	0	0.72	bottom	right	right	gamble	good	0.72	11.99	
47	14	mix	2037.1352923996747	2037.1433710996062	2040.2867101999	2040.2913247998804	3.143339100293815	0	-0.5	0.5	top	left	right	safe	bad	0.0	11.99	
48	60	gain	2046.8618184998631	2046.8694903999567	2049.4657645002007	2051.482414700091	2.5962741002440453	0.2	0	1	top	left	left	gamble	good	1.0	12.99	
49	132	loss	2061.6760547999293	2061.68505069986	2065.790488200262	2067.8070005998015	4.105437500402331	-0.5	-0.91	0	top	left	left	gamble	good	0.0	12.99	
50	86	gain	2072.3207032000646	2072.332184200175	2074.3686371995136	2076.384880100377	2.0364529993385077	0.5	0	1.4	top	left	left	gamble	bad	0.0	12.99	
51	15	mix	2081.659066299908	2081.659953500144	2084.046863200143	2084.054872199893	2.386909699998796	0	-0.8	0.16	top	right	left	safe	good	0.0	12.99	
52	91	gain	2095.308559300378	2095.3171044001356	2098.273233000189	2100.2883816994727	2.956128600053489	0.6	0	1.01	bottom	left	left	gamble	bad	0.0	12.99	
53	142	loss	2105.7686900999397	2105.769454400055	2110.016599699855	2112.0336667997763	4.24714529979974	-0.6	-1.09	0	top	right	right	gamble	bad	-1.09	11.9	
54	126	loss	2117.4807216003537	2117.4904477000237	2118.8784940000623	2120.8954978995025	1.3880463000386953	-0.4	-1.12	0	bottom	left	left	gamble	bad	-1.12	10.78	
55	81	gain	2132.588599300012	2132.5970692001283	2134.1042876001447	2136.119493300095	1.507218400016427	0.5	0	0.84	bottom	left	left	gamble	bad	0.0	10.78	
56	79	gain	2141.612375400029	2141.613267700188	2145.231344799511	2145.2366143995896	3.6180770993232727	0.4	0	1.68	top	right	left	safe	bad	0.4	11.18	
57	116	loss	2152.3249525995925	2152.332997299731	2154.3768156003207	2154.3846888998523	2.043818300589919	-0.3	-0.84	0	bottom	left	right	safe	good	-0.3	10.88	
58	62	gain	2167.7532399995252	2167.763564400375	2169.085186799988	2171.102028399706	1.3216223996132612	0.3	0	0.55	bottom	left	left	gamble	bad	0.0	10.88	
59	54	gain	2176.5075514996424	2176.508417800069	2180.0135102998465	2180.021636400372	3.5050924997776747	0.2	0	0.44	top	right	left	safe	bad	0.2	11.08	
60	30	mix	2186.681758600287	2186.690911299549	2189.024714999832	2189.0323753999546	2.3338037002831697	0	-1.5	0.6	top	left	right	safe	good	0.0	11.08	
61	72	gain	2199.503594099544	2199.513004399836	2202.584734899923	2204.6011845003814	3.071730500087142	0.4	0	0.73	top	left	left	gamble	bad	0.0	11.08	
62	65	gain	2209.867559399456	2209.8684435002506	2211.84594759997	2213.8623780999333	1.9775040997192264	0.3	0	0.74	top	right	right	gamble	bad	0.0	11.08	
63	42	mix	2219.0045758001506	2219.0054083997384	2222.1577198002487	2222.165690500289	3.1523114005103707	0	-0.8	1.2	top	right	left	safe	good	0.0	11.08	
64	127	loss	2231.9363706996664	2231.937353200279	2235.0342287998646	2237.049880599603	3.0968755995854735	-0.4	-1.26	0	top	right	right	gamble	good	0.0	11.08	
65	20	mix	2241.1148423003033	2241.1233233995736	2245.3613280998543	2245.3673088997602	4.238004700280726	0	-0.8	0.66	top	left	right	safe	good	0.0	11.08	
66	28	mix	2252.83464969974	2252.8355307998136	2255.390118500218	2255.398067000322	2.554587700404227	0	-1.5	0.3	top	right	left	safe	good	0.0	11.08	
67	43	mix	2265.1519266003743	2265.1527530001476	2270.815342700109	2270.8244115002453	5.662589699961245	0	-0.8	1.6	top	right	left	safe	bad	0.0	11.08	
68	106	loss	2277.624606899917	2277.6336236996576	2280.509226599708	2282.5256615998223	2.8756029000505805	-0.2	-0.56	0	bottom	left	left	gamble	bad	-0.56	10.52	
69	80	gain	2287.7237206995487	2287.7292050002143	2289.0888764997944	2291.105478500016	1.3596714995801449	0.4	0	2	top	left	left	gamble	bad	0.0	10.52	
70	122	loss	2301.532813699916	2301.5414118999615	2305.329870699905	2307.345578599721	3.788458799943328	-0.4	-0.73	0	top	left	left	gamble	bad	-0.73	9.79	
71	19	mix	2312.306191199459	2312.307175000198	2314.0924634998664	2316.108632899821	1.7852884996682405	0	-0.8	0.53	bottom	right	right	gamble	bad	-0.8	8.99	
72	26	mix	2321.567452199757	2321.577415799722	2322.8710442995653	2324.8872643001378	1.2936284998431802	0	-1.1	0.73	bottom	left	left	gamble	bad	-1.1	7.89	
73	75	gain	2332.400161399506	2332.40851129964	2334.265073100105	2334.27262969967	1.8565618004649878	0.4	0	0.99	top	left	right	safe	bad	0.4	8.29	
74	119	loss	2341.7926783002913	2341.79367959965	2344.225536200218	2346.2424294995144	2.4318566005676985	-0.3	-1.26	0	bottom	right	right	gamble	bad	-1.26	7.03	
75	109	loss	2351.440986200236	2351.4418628001586	2352.788479199633	2352.7963725998998	1.346616399474442	-0.2	-0.84	0	bottom	right	left	safe	bad	-0.2	6.83	
76	144	loss	2367.5964468000457	2442.7500478997827	2448.0716335996985	2450.0878873001784	5.321585699915886	-0.6	-1.33	0	bottom	right	right	gamble	bad	-1.33	5.5	
77	145	loss	2455.2947019999847	2455.304300799966	2456.9833602998406	2458.9993770001456	1.679059499874711	-0.6	-1.49	0	top	left	left	gamble	bad	-1.49	4.01	
78	148	loss	2464.0768285999075	2464.0777094997466	2465.8782278997824	2467.8950121998787	1.8005184000357985	-0.6	-2.16	0	bottom	right	right	gamble	bad	-2.16	1.85	
79	115	loss	2482.1205332996324	2482.1213501999155	2486.167973799631	2486.176889100112	4.046623599715531	-0.3	-0.74	0	top	right	left	safe	good	-0.3	1.55	
80	124	loss	2493.131061400287	2493.1318819001317	2494.896181399934	2496.913701900281	1.7642994998022914	-0.4	-0.89	0	bottom	right	right	gamble	good	0.0	1.55	
81	39	mix	2501.8973858002573	2501.906057300046	2504.524377799593	2506.541366700083	2.618320499546826	0	-0.5	0.75	top	left	left	gamble	good	0.75	2.3	
82	35	mix	2520.9332673996687	2520.9410389997065	2523.8814409999177	2525.8971077995375	2.9404020002111793	0	-0.3	0.36	top	left	left	gamble	good	0.36	2.66	
83	41	mix	2530.657323599793	2530.6641718000174	2532.1602357001975	2534.176359199919	1.496063900180161	0	-0.8	0.96	bottom	left	left	gamble	bad	-0.8	1.86	
84	67	gain	2539.375466399826	2539.3763106996194	2540.9072112999856	2540.91447389964	1.5309006003662944	0.3	0	0.95	top	right	left	safe	good	0.3	2.16	
85	53	gain	2553.9985649995506	2553.9994018003345	2556.913815399632	2558.929545899853	2.9144135992974043	0.2	0	0.4	top	right	right	gamble	bad	0.0	2.16	
86	139	loss	2563.7230206998065	2563.7324564997107	2565.4261611001566	2565.433668400161	1.6937046004459262	-0.5	-2.1	0	top	left	right	safe	bad	-0.5	1.66	
87	5	mix	2572.651157599874	2572.659494999796	2574.3873760001734	2576.4036387000233	1.7278810003772378	0	-0.3	0.2	top	left	left	gamble	bad	-0.3	1.36	
88	9	mix	2590.9625425999984	2590.9634544998407	2593.044187299907	2595.060300500132	2.080732800066471	0	-0.5	0.15	bottom	right	right	gamble	good	0.15	1.51	
89	66	gain	2599.5784261003137	2599.627729400061	2600.8730720002204	2600.877869799733	1.245342600159347	0.3	0	0.84	bottom	left	right	safe	good	0.3	1.81	
90	52	gain	2608.245380300097	2608.2462716000155	2609.652016799897	2611.668959800154	1.405745199881494	0.2	0	0.36	top	right	right	gamble	good	0.36	2.17	
91	27	mix	2619.364617699757	2619.3654463998973	2621.629124299623	2621.636334899813	2.263677899725735	0	-1.1	0.9	top	right	left	safe	bad	0.0	2.17	
92	90	gain	2628.982869000174	2628.983734900132	2631.657734599896	2631.665025799535	2.6739996997639537	0.5	0	2.5	top	right	left	safe	good	0.5	2.67	
93	84	gain	2638.8986913003027	2638.899793899618	2644.6842286996543	2646.7004027003422	5.7844348000362515	0.5	0	1.11	bottom	right	right	gamble	good	1.11	3.78	
94	21	mix	2657.260935000144	2657.269193300046	2658.942483799532	2660.9589064000174	1.6732904994860291	0	-0.8	0.8	bottom	left	left	gamble	good	0.8	4.58	
95	149	loss	2666.1964926999062	2666.197379300371	2667.721101500094	2667.724668400362	1.5237221997231245	-0.6	-2.52	0	bottom	right	left	safe	bad	-0.6	3.98	
96	136	loss	2674.9935892000794	2675.002731599845	2676.3668764997274	2678.38303339947	1.3641448998823762	-0.5	-1.4	0	top	left	left	gamble	bad	-1.4	2.58	
97	77	gain	2692.2089774999768	2692.2098321001977	2693.8575328998268	2693.8662593998015	1.6477007996290922	0.4	0	1.26	top	right	left	safe	bad	0.4	2.98	
98	18	mix	2700.4950821995735	2700.4961032997817	2702.652782799676	2704.669577599503	2.1566794998943806	0	-0.8	0.42	top	right	right	gamble	good	0.42	3.4	
99	31	mix	2709.6395602999255	2709.6494332002476	2712.148354300298	2714.164328299463	2.498921100050211	0	-1.5	0.78	bottom	left	left	gamble	bad	-1.5	1.9	
100	134	loss	2728.5068081999198	2728.507627800107	2729.6058328999206	2729.6136795002967	1.0982050998136401	-0.5	-1.11	0	bottom	right	left	safe	bad	-0.5	1.4	
101	36	mix	2736.3055569995195	2736.313007099554	2736.768460399471	2738.7839013002813	0.4554532999172807	0	-0.3	0.45	top	left	left	gamble	bad	-0.3	1.1	
102	131	loss	2743.7013502996415	2743.7093471996486	2744.2147706001997	2746.2308184001595	0.5054234005510807	-0.5	-0.84	0	bottom	left	left	gamble	bad	-0.84	0.26	
103	13	mix	2760.190225799568	2760.1910608001053	2761.8387367995456	2763.854471700266	1.6476759994402528	0	-0.5	0.41	bottom	right	right	gamble	good	0.41	0.67	
104	82	gain	2768.509096900001	2768.5160322003067	2769.650712300092	2769.658737500198	1.134680099785328	0.5	0	0.91	top	left	right	safe	bad	0.5	1.17	
105	46	mix	2777.1570755997673	2777.167776499875	2778.4465271998197	2778.454424499534	1.2787506999447942	0	-1.1	1.65	bottom	left	right	safe	bad	0.0	1.17	
106	7	mix	2788.0255121001974	2788.0320472000167	2790.773517999798	2790.782294699922	2.741470799781382	0	-0.3	0.3	top	left	right	safe	bad	0.0	1.17	
107	55	gain	2797.9690348999575	2797.9773933002725	2799.4847886003554	2799.4902707003057	1.5073953000828624	0.2	0	0.5	top	left	right	safe	good	0.2	1.37	
108	133	loss	2806.225267799571	2806.226033399813	2808.6972901001573	2808.704393300228	2.4712567003443837	-0.5	-1	0	bottom	right	left	safe	bad	-0.5	0.87	
109	49	mix	2824.006723199971	2824.00756129995	2825.7216416997835	2827.7379473000765	1.7140803998336196	0	-1.5	2.25	bottom	right	right	gamble	good	2.25	3.12	
110	12	mix	2832.8266677996144	2832.8351916000247	2839.513915799558	2839.5217508003116	6.6787241995334625	0	-0.5	0.33	bottom	left	right	safe	good	0.0	3.12	
111	33	mix	2846.5817753998563	2846.5826676003635	2854.539860099554	0	0	0	-1.5	1.23	bottom	right	NaN	NaN	Nan	0	3.12	
112	73	gain	2865.8166106995195	2865.8174636000767	2869.1816475996748	2869.187651500106	3.3641839995980263	0.4	0	0.8	bottom	right	left	safe	good	0.4	3.52	
113	87	gain	2875.856816199608	2875.8791567003354	2877.8601970002055	2879.8763597002253	1.9810402998700738	0.5	0	1.58	bottom	left	left	gamble	bad	0.0	3.52	
114	98	gain	2884.8297512000427	2884.830632899888	2889.6713156001642	2889.680522600189	4.840682700276375	0.6	0	2.16	bottom	right	left	safe	good	0.6	4.12	
115	2	mix	2898.983827199787	2898.984661899507	2902.097979400307	2904.1141309002414	3.1133175007998943	0	-0.3	0.09	top	right	right	gamble	good	0.09	4.21	
116	56	gain	2908.3741693003103	2908.3819455001503	2910.3763117995113	2910.3836436001584	1.9943662993609905	0.2	0	0.56	bottom	left	right	safe	good	0.2	4.41	
117	51	gain	2917.854838299565	2917.858841200359	2919.8046242995188	2919.811800800264	1.9457830991595984	0.2	0	0.34	bottom	left	right	safe	good	0.2	4.61	
118	129	loss	2929.983249099925	2929.9841478001326	2932.1148937996477	2934.1310698995367	2.1307459995150566	-0.4	-1.68	0	top	right	right	gamble	good	0.0	4.61	
119	48	mix	2938.2461433000863	2938.246989700012	2940.4269861998037	2940.431673999876	2.1799964997917414	0	-1.5	1.8	bottom	right	left	safe	good	0.0	4.61	
120	120	loss	2947.217030700296	2947.224429599941	2950.8550151996315	2952.8719290997833	3.6305855996906757	-0.3	-1.5	0	top	left	left	gamble	bad	-1.5	3.11	
121	96	gain	2966.5971636995673	2966.604733799584	2968.7626449996606	2970.779537100345	2.1579112000763416	0.6	0	1.68	bottom	left	left	gamble	good	1.68	4.79	
122	123	loss	2976.2488279994577	2976.249716100283	2978.8067712001503	2980.8228968996555	2.5570550998672843	-0.4	-0.8	0	bottom	right	right	gamble	bad	-0.8	3.99	
123	128	loss	2985.7298579998314	2985.73073439952	2986.5864452999085	2986.594425899908	0.855710900388658	-0.4	-1.44	0	top	right	left	safe	good	-0.4	3.59	
124	23	mix	2999.480423199944	2999.4812652999535	3001.111577300355	3003.127865199931	1.630312000401318	0	-1.1	0.33	bottom	right	right	gamble	bad	-1.1	2.49	
125	112	loss	3007.6876790998504	3007.696264100261	3009.8074332000688	3011.8235849002376	2.1111690998077393	-0.3	-0.55	0	bottom	left	left	gamble	bad	-0.55	1.94	
126	125	loss	3017.1415791995823	3017.1502508996055	3019.3020093999803	3021.3190406002104	2.1517585003748536	-0.4	-0.99	0	top	left	left	gamble	good	0.0	1.94	
127	68	gain	3039.8086772998795	3039.809555900283	3047.7878256998956	0	0	0.3	0	1.08	top	right	NaN	NaN	Nan	0	1.94	
128	130	loss	3049.8687707995996	3049.872132900171	3051.8346478994936	3053.8514396995306	1.9625149993225932	-0.4	-2	0	top	left	left	gamble	bad	-2.0	-0.06	
129	57	gain	3059.291364699602	3059.3001443995163	3061.263384799473	3061.269316500053	1.9632403999567032	0.2	0	0.63	top	left	right	safe	bad	0.2	0.14	
130	141	loss	3077.9053739001974	3077.9127813996747	3079.4717260999605	3081.486421599984	1.5589447002857924	-0.6	-1.01	0	bottom	left	left	gamble	bad	-1.01	-0.87	
131	117	loss	3086.1062040003017	3086.1070950999856	3089.3149777995422	3091.3314404999837	3.2078826995566487	-0.3	-0.95	0	top	right	right	gamble	bad	-0.95	-1.82	
132	34	mix	3095.869756899774	3095.8706296999007	3098.627136799507	3100.643443699926	2.7565070996060967	0	-1.5	1.5	bottom	right	right	gamble	good	1.5	-0.32	
133	22	mix	3114.020024999976	3114.0286676995456	3116.5003602001816	3118.517345399596	2.4716925006359816	0	-1.1	0.22	top	left	left	gamble	bad	-1.1	-1.42	
134	138	loss	3123.845129299909	3123.8461726997048	3127.0283228000626	3127.036357600242	3.1821501003578305	-0.5	-1.8	0	bottom	right	left	safe	bad	-0.5	-1.92	
135	111	loss	3134.561040800065	3134.569511500187	3136.7071386994794	3138.7232342995703	2.137627199292183	-0.3	-0.5	0	top	left	left	gamble	bad	-0.5	-2.42	
136	89	gain	3153.3484755996615	3153.356673600152	3155.7803283995017	3157.796881100163	2.423654799349606	0.5	0	2.1	top	left	left	gamble	good	2.1	-0.32	
137	16	mix	3163.0055411001667	3163.0157434996217	3165.15812729951	3167.174678599462	2.1423837998881936	0	-0.8	0.24	bottom	left	left	gamble	bad	-0.8	-1.12	
138	93	gain	3172.2022292995825	3172.203115100041	3175.586002100259	3177.603057200089	3.382887000218034	0.6	0	1.2	top	right	right	gamble	good	1.2	0.08	
139	143	loss	3193.3105892995372	3193.31143250037	3197.674811700359	3197.683558500372	4.36337919998914	-0.6	-1.2	0	top	right	left	safe	bad	-0.6	-0.52	
140	85	gain	3205.2030017003417	3205.2124268999323	3209.734657799825	3211.751114799641	4.522230899892747	0.5	0	1.24	top	left	left	gamble	good	1.24	0.72	
141	100	gain	3216.5003365995362	3216.50631029997	3219.596103100106	3221.6121817994863	3.0897928001359105	0.6	0	3	top	left	left	gamble	good	3.0	3.72	
142	92	gain	3231.973685200326	3231.9745113002136	3239.9364179996774	0	0	0.6	0	1.09	top	right	NaN	NaN	Nan	0	3.72	
143	147	loss	3242.8136791000143	3242.8227704996243	3245.1824394995347	3247.198731900193	2.3596689999103546	-0.6	-1.9	0	top	left	left	gamble	bad	-1.9	1.82	
144	29	mix	3252.1081790002063	3252.109063499607	3253.8944054003805	3253.901807899587	1.7853419007733464	0	-1.5	0.45	top	right	left	safe	bad	0.0	1.82	
145	24	mix	3271.719221400097	3271.720067700371	3274.5009634997696	3274.508737599477	2.7808957993984222	0	-1.1	0.44	bottom	right	left	safe	bad	0.0	1.82	
146	108	loss	3281.2265189001337	3281.2273500999436	3283.662064500153	3285.6789220999926	2.4347144002094865	-0.2	-0.72	0	bottom	right	right	gamble	good	0.0	1.82	
147	45	mix	3290.6825839001685	3290.6929109003395	3292.1580638997257	3294.174197900109	1.4651529993861914	0	-1.1	1.32	top	left	left	gamble	bad	-1.1	0.72	
148	38	mix	3307.4835604000837	3307.4844031995162	3315.446127999574	0	0	0	-0.5	0.6	bottom	right	NaN	NaN	Nan	0	0.72	
149	6	mix	3317.784051200375	3317.7911879001185	3319.0766385998577	3319.0847150003538	1.2854506997391582	0	-0.3	0.25	bottom	left	right	safe	good	0.0	0.72	
150	50	mix	3326.2981385001913	3326.305278699845	3327.75540249981	3329.7717150999233	1.4501237999647856	0	-1.5	3	top	left	left	gamble	good	3.0	3.72	

Start Time: 09:15:19
End Time: 10:11:01