TrialType,CertainAmt,TopAmt,BottomAmt,Outcome,RiskSide,ITI,Rating,trialControl.thisRepN,trialControl.thisTrialN,trialControl.thisN,trialControl.thisIndex,revealLoop.thisRepN,revealLoop.thisTrialN,revealLoop.thisN,revealLoop.thisIndex,timeoutLoop.thisRepN,timeoutLoop.thisTrialN,timeoutLoop.thisN,timeoutLoop.thisIndex,HowHappyCheck.thisRepN,HowHappyCheck.thisTrialN,HowHappyCheck.thisN,HowHappyCheck.thisIndex,welcomeText.started,Win.started,Mouse.started,Keys.started,Mouse.x,Mouse.y,Mouse.leftButton,Mouse.midButton,Mouse.rightButton,Keys.keys,Keys.rt,Win_2.started,WinMsg.started,Win_3.started,WinMsg_2.started,Cross.started,Cross.stopped,HowHappySlider.started,UnHappy.started,Happy.started,SliderKeyboard.started,SpacetoExit.started,HowHappySlider.response,HowHappySlider.rt,SliderKeyboard.keys,SliderKeyboard.rt,timeoutText.started,participant,session,date,expName,psychopyVersion,frameRate,
mix,0.0,-0.8,0.96,top,left,1.68,0,0,0,0,40,,,,,,,,,,,,,29.72275009999794,34.820539799999096,0.05322080000041751,34.820539799999096,0.6539351851851852,-0.028935185185185185,0,0,0,right,0.7894282000015664,35.70373969999855,35.70373969999855,37.720532399998774,37.720532399998774,39.65479249999771,41.43514579999828,,,,,,,,,,,,001,2022-12-15_14h53.02.140,SWB_debug,2022.2.4,59.610350979899756,
gain,0.4,0.0,0.73,bottom,left,1.76,0,0,1,1,71,,,,,,,,,,,,,,41.43514579999828,0.0888336000025447,41.43514579999828,0.6539351851851852,-0.028935185185185185,0,0,0,right,0.7738344999997935,42.29010819999894,42.29010819999894,44.302199499998096,44.302199499998096,46.2394060000006,48.05882719999863,,,,,,,,,,,,001,2022-12-15_14h53.02.140,SWB_debug,2022.2.4,59.610350979899756,
loss,-0.4,-2.0,0.0,bottom,left,1.92,0,0,2,2,129,,,,,,,,,,,,,,48.05882719999863,0.04050490000008722,48.05882719999863,0.6539351851851852,-0.028935185185185185,0,0,0,right,1.149709500004974,49.37543010000081,49.37543010000081,51.37100289999944,51.37100289999944,56.50816239999767,58.460703900000226,53.43984300000011,53.43984300000011,53.43984300000011,55.857587099999364,55.857587099999364,4.114583333333334,2.4339317999983905,space,0.5752783000025374,,,001,2022-12-15_14h53.02.140,SWB_debug,2022.2.4,59.610350979899756,
gain,0.4,0.0,0.99,top,left,1.96,0,0,3,3,74,,,,,,,,,,,,,,58.460703900000226,0.01926879999882658,58.460703900000226,-0.15393518518518517,-0.20601851851851852,0,0,0,right,1.4276780000000144,59.97761979999996,59.97761979999996,61.99183489999996,61.99183489999996,63.92958169999838,65.94833780000044,,,,,,,,,,,,001,2022-12-15_14h53.02.140,SWB_debug,2022.2.4,59.610350979899756,
loss,-0.6,-1.09,0.0,bottom,right,1.93,1,0,4,4,141,,,,,,,,,,,,,,65.94833780000044,0.0312787999973807,65.94833780000044,-0.15393518518518517,-0.20601851851851852,0,0,0,right,0.788324700002704,66.83170550000068,66.83170550000068,68.83287759999803,68.83287759999803,70.78368219999902,72.7498147999977,,,,,,,,,,,,001,2022-12-15_14h53.02.140,SWB_debug,2022.2.4,59.610350979899756,
loss,-0.6,-1.01,0.0,top,left,1.1,0,0,5,5,140,,,,,,,,,,,,,,72.7498147999977,0.00865440000052331,72.7498147999977,-0.15393518518518517,-0.20601851851851852,0,0,0,left,0.46702210000148625,73.2831428999998,73.2831428999998,75.3516103999973,75.3516103999973,79.61386459999994,80.76677159999963,77.33016320000024,77.33016320000024,77.33016320000024,78.95090549999804,78.95090549999804,4.114583333333334,1.5454433999984758,space,0.593373600000632,,,001,2022-12-15_14h53.02.140,SWB_debug,2022.2.4,59.610350979899756,
loss,-0.2,-0.56,0.0,top,left,1.68,0,0,6,6,105,,,,,,,,,,,,,,80.76677159999963,0.031422900003235554,80.76677159999963,-0.15393518518518517,-0.20601851851851852,0,0,0,left,0.6499985000045854,81.4880693999985,81.4880693999985,83.53880869999921,83.53880869999921,85.47114299999885,87.18454650000058,,,,,,,,,,,,001,2022-12-15_14h53.02.140,SWB_debug,2022.2.4,59.610350979899756,
loss,-0.3,-1.26,0.0,top,right,1.68,0,0,7,7,118,,,,,,,,,,,,,,87.18454650000058,0.01954759999716771,87.18454650000058,-0.15393518518518517,-0.20601851851851852,0,0,0,left,1.3046373000033782,88.5577252999974,88.5577252999974,90.57265099999859,90.57265099999859,92.54043589999856,94.25662679999732,,,,,,,,,,,,001,2022-12-15_14h53.02.140,SWB_debug,2022.2.4,59.610350979899756,
mix,0.0,-1.5,1.5,bottom,right,1.72,0,0,8,8,33,,,,,,,,,,,,,,94.25662679999732,0.024474700003338512,94.25662679999732,-0.17824074074074073,-0.17592592592592593,0,0,0,left,2.0155572000039683,96.34117110000079,96.34117110000079,98.34375689999797,98.34375689999797,102.9430786999983,104.71172699999806,100.35653669999738,100.35653669999738,100.35653669999738,102.64288659999875,102.64288659999875,3.84375,2.1935217999998713,space,0.26179510000292794,,,001,2022-12-15_14h53.02.140,SWB_debug,2022.2.4,59.610350979899756,
gain,0.2,0.0,0.84,bottom,right,1.6,0,0,9,9,58,,,,,,,,,,,,,,104.71172699999806,0.019131999997625826,104.71172699999806,-0.18287037037037038,-0.18055555555555555,0,0,0,left,0.6889895000022079,105.49748089999775,105.49748089999775,107.49205489999804,107.49205489999804,109.44640280000021,111.08125909999944,,,,,,,,,,,,001,2022-12-15_14h53.02.140,SWB_debug,2022.2.4,59.610350979899756,
loss,-0.3,-0.67,0.0,top,left,1.27,0,0,10,10,113,,,,,,,,,,,,,,111.08125909999944,0.025952700001653284,111.08125909999944,-0.18287037037037038,-0.18055555555555555,0,0,0,right,0.6548406000038085,111.8131942,111.8131942,113.83279659999971,113.83279659999971,115.78210899999976,117.10043600000063,,,,,,,,,,,,001,2022-12-15_14h53.02.140,SWB_debug,2022.2.4,59.610350979899756,
gain,0.2,0.0,0.72,bottom,right,1.71,0,0,11,11,57,,,,,,,,,,,,,,117.10043600000063,0.023556899999675807,117.10043600000063,-0.18287037037037038,-0.18055555555555555,0,0,0,left,1.4042839000030654,118.60082259999763,118.60082259999763,120.61820549999902,120.61820549999902,124.73728819999815,126.48670539999875,122.66404300000067,122.66404300000067,122.66404300000067,124.33626509999885,124.33626509999885,3.854166666666667,1.5855020999988483,space,0.3446111000048404,,,001,2022-12-15_14h53.02.140,SWB_debug,2022.2.4,59.610350979899756,
mix,0.0,-1.1,0.73,top,left,1.36,0,0,12,12,25,,,,,,,,,,,,,,126.48670539999875,0.021036199999798555,126.48670539999875,-0.18287037037037038,-0.18055555555555555,0,0,0,right,0.7538619000006292,127.30453249999846,127.30453249999846,129.32252589999916,129.32252589999916,131.28877450000073,132.68514759999744,,,,,,,,,,,,001,2022-12-15_14h53.02.140,SWB_debug,2022.2.4,59.610350979899756,
gain,0.5,0.0,2.1,top,left,1.69,0,0,13,13,88,,,,,,,,,,,,,,132.68514759999744,0.018437800001265714,132.68514759999744,-0.18287037037037038,-0.18055555555555555,0,0,0,right,0.7233045000029961,133.487386599998,133.487386599998,135.53896650000024,135.53896650000024,137.4725772999991,139.20901949999825,,,,,,,,,,,,001,2022-12-15_14h53.02.140,SWB_debug,2022.2.4,59.610350979899756,
gain,0.6,0.0,1.33,top,right,1.84,0,0,14,14,93,,,,,,,,,,,,,,139.20901949999825,0.02399380000133533,139.20901949999825,-0.18287037037037038,-0.18055555555555555,0,0,0,left,0.7925998000027903,140.07779949999895,140.07779949999895,142.09352469999794,142.09352469999794,145.9439797999985,147.8283143999979,144.10921809999854,144.10921809999854,144.10921809999854,145.64464429999862,145.64464429999862,3.854166666666667,1.4633346000009624,space,0.26003530000161845,,,001,2022-12-15_14h53.02.140,SWB_debug,2022.2.4,59.610350979899756,
mix,0.0,-0.5,0.2,top,left,1.39,0,0,15,15,9,,,,,,,,,,,,,,147.8283143999979,0.02015640000172425,147.8283143999979,-0.18287037037037038,-0.18055555555555555,0,0,0,right,0.6437394000022323,148.54521039999963,148.54521039999963,150.56254029999764,150.56254029999764,152.52982739999788,153.96753180000087,,,,,,,,,,,,001,2022-12-15_14h53.02.140,SWB_debug,2022.2.4,59.610350979899756,
gain,0.6,0.0,1.2,top,right,1.86,0,0,16,16,92,,,,,,,,,,,,,,153.96753180000087,0.017286199999944074,153.96753180000087,-0.18287037037037038,-0.18055555555555555,0,0,0,left,1.873709499999677,155.9313985000008,155.9313985000008,157.93300069999896,157.93300069999896,159.89906359999804,161.80055119999815,,,,,,,,,,,,001,2022-12-15_14h53.02.140,SWB_debug,2022.2.4,59.610350979899756,
loss,-0.4,-0.67,0.0,bottom,left,1.12,1,0,17,17,120,,,,,,,,,,,,,,161.80055119999815,0.025516999998217216,161.80055119999815,-0.18287037037037038,-0.18055555555555555,0,0,0,right,0.5523133000024245,162.4498504999974,162.4498504999974,164.51985910000076,164.51985910000076,168.21930509999947,169.38332049999735,166.4804793000003,166.4804793000003,166.4804793000003,167.9508335999999,167.9508335999999,3.854166666666667,1.429755799999839,space,0.2340098000022408,,,001,2022-12-15_14h53.02.140,SWB_debug,2022.2.4,59.610350979899756,
loss,-0.4,-1.44,0.0,bottom,right,1.97,0,0,18,18,127,,,,,,,,,,,,,,169.38332049999735,0.017607300000236137,169.38332049999735,-0.18287037037037038,-0.18055555555555555,0,0,0,left,0.7369754000028479,170.1724628999982,170.1724628999982,172.18661129999964,172.18661129999964,174.15207229999942,176.15683200000058,,,,,,,,,,,,001,2022-12-15_14h53.02.140,SWB_debug,2022.2.4,59.610350979899756,
mix,0.0,-1.1,2.2,bottom,left,1.76,1,0,19,19,46,,,,,,,,,,,,,,176.15683200000058,0.024769799998466624,176.15683200000058,-0.17824074074074073,-0.17824074074074073,0,0,0,left,0.5873954000016965,176.83649439999863,176.83649439999863,178.8423460999984,178.8423460999984,180.79060290000052,182.60662410000077,,,,,,,,,,,,001,2022-12-15_14h53.02.140,SWB_debug,2022.2.4,59.610350979899756,
mix,0.0,-0.3,0.06,top,left,1.15,0,0,20,20,0,,,,,,,,,,,,,,182.60662410000077,0.024597899999207584,182.60662410000077,-0.17824074074074073,-0.17824074074074073,0,0,0,right,0.7705206000027829,183.49339079999845,183.49339079999845,185.47359399999914,185.47359399999914,189.4438580999995,190.62944529999731,187.48888339999758,187.48888339999758,187.48888339999758,189.15913809999984,189.15913809999984,4.395833333333334,1.60087779999958,space,0.22509480000371695,,,001,2022-12-15_14h53.02.140,SWB_debug,2022.2.4,59.610350979899756,
loss,-0.2,-1.0,0.0,top,left,1.67,0,0,21,21,109,,,,,,,,,,,,,,190.62944529999731,0.024850900001183618,190.62944529999731,-0.12268518518518519,-0.22106481481481483,0,0,0,left,0.9075320000010834,191.6274028000007,191.6274028000007,193.66290730000037,193.66290730000037,195.6145644999997,197.3148876999985,,,,,,,,,,,,001,2022-12-15_14h53.02.140,SWB_debug,2022.2.4,59.610350979899756,
loss,-0.2,-0.36,0.0,top,right,1.04,0,0,22,22,101,,,,,,,,,,,,,,197.3148876999985,0.013969600000564242,197.3148876999985,-0.12268518518518519,-0.22106481481481483,0,0,0,right,1.1172073000016098,198.48043730000063,198.48043730000063,200.51343350000025,200.51343350000025,202.4986742000001,203.5832386999973,,,,,,,,,,,,001,2022-12-15_14h53.02.140,SWB_debug,2022.2.4,59.610350979899756,
gain,0.2,0.0,0.34,top,left,1.94,0,0,23,23,50,,,,,,,,,,,,,,203.5832386999973,0.028901100002258318,203.5832386999973,0.7534722222222222,-0.33217592592592593,0,0,0,None,,,,,,224.8909535999992,226.8735032000004,219.6397766000009,219.6397766000009,219.6397766000009,224.8224616999978,224.8224616999978,3.802083333333333,5.11850079999931,space,0.025931500000297092,211.58769949999987,,001,2022-12-15_14h53.02.140,SWB_debug,2022.2.4,59.610350979899756,
gain,0.6,0.0,1.9,bottom,left,1.51,0,0,24,24,96,,,,,,,,,,,,,,226.8735032000004,0.017946700001630234,226.8735032000004,0.8101851851851852,-0.14467592592592593,0,0,0,None,,,,,,242.8627615000005,244.40127759999814,,,,,,,,,,234.8625680999976,,001,2022-12-15_14h53.02.140,SWB_debug,2022.2.4,59.610350979899756,
gain,0.3,0.0,0.6,bottom,right,1.72,0,0,25,25,62,,,,,,,,,,,,,,244.40127759999814,0.013491300000168849,244.40127759999814,0.8101851851851852,-0.14467592592592593,0,0,0,None,,,,,,260.39088719999927,262.1732413999998,,,,,,,,,,252.41237170000022,,001,2022-12-15_14h53.02.140,SWB_debug,2022.2.4,59.610350979899756,
,,,,,,,,,,,,,,,,,,,,,,,,,262.1732413999998,0.02863950000028126,262.1732413999998,0.8101851851851852,-0.14467592592592593,0,0,0,None,,,,,,,,278.23116519999894,278.23116519999894,278.23116519999894,,,,,,,270.1605335999993,,,,,,,
