TrialType,CertainAmt,TopAmt,BottomAmt,Outcome,RiskSide,ITI,Rating,trialControl.thisRepN,trialControl.thisTrialN,trialControl.thisN,trialControl.thisIndex,revealLoop.thisRepN,revealLoop.thisTrialN,revealLoop.thisN,revealLoop.thisIndex,timeoutLoop.thisRepN,timeoutLoop.thisTrialN,timeoutLoop.thisN,timeoutLoop.thisIndex,HowHappyCheck.thisRepN,HowHappyCheck.thisTrialN,HowHappyCheck.thisN,HowHappyCheck.thisIndex,welcomeText1.started,space_to_continue.started,welcomeText2.started,space_to_continue_2.started,Win.started,Keys.started,Mouse.started,Keys.keys,Keys.rt,Mouse.x,Mouse.y,Mouse.leftButton,Mouse.midButton,Mouse.rightButton,Win_2.started,WinMsg.started,Win_3.started,WinMsg_2.started,Cross.started,Cross.stopped,HowHappySlider.started,UnHappy.started,Happy.started,SliderKeyboard.started,SpacetoExit.started,HowHappySlider.response,HowHappySlider.rt,SliderKeyboard.keys,SliderKeyboard.rt,Win_2.stopped,WinMsg.stopped,Win_3.stopped,WinMsg_2.stopped,exitText.started,exitText.stopped,participant,session,date,expName,psychopyVersion,frameRate,
mix,0.0,-0.3,0.12,bottom,right,1.3,1,0,0,0,2,,,,,,,,,,,,,15.47371399999247,1.5375000657513738e-05,16.75048029201571,5.9582991525530815e-05,17.560691916994983,17.560691916994983,0.015150584018556401,right,0.7774775419966318,-0.6377314814814815,0.5335648148148148,0,0,0,18.383116209006403,18.383116209006403,20.39561145901098,20.39561145901098,22.395027291990118,23.710322500002803,,,,,,,,,,,,,,,,testtttt,001,2023-03-30_16h27.56.617,SWB_debug,2022.2.4,None,
gain,0.4,0.0,1.26,top,right,1.07,0,0,1,1,76,,,,,,,,,,,,,,,,,23.710322500002803,23.710322500002803,0.019111708010314032,right,0.5757177920022514,-0.6377314814814815,0.5335648148148148,0,0,0,24.315889999998035,24.315889999998035,26.323635292006657,26.323635292006657,28.31133354199119,29.399104125011945,,,,,,,,,,,,,,,,testtttt,001,2023-03-30_16h27.56.617,SWB_debug,2022.2.4,None,
gain,0.6,0.0,1.2,top,right,1.86,0,0,2,2,92,,,,,,,,,,,,,,,,,29.399104125011945,29.399104125011945,0.0071949579869396985,right,0.40150329199968837,-0.6377314814814815,0.5335648148148148,0,0,0,29.830843417003052,29.830843417003052,31.83555512499879,31.83555512499879,36.76926575001562,38.64983999999822,33.83654145899345,33.83654145899345,33.83654145899345,36.55742129200371,36.55742129200371,2.2291666666666665,2.6989917079918087,space,0.19983941700775176,,,,,,,testtttt,001,2023-03-30_16h27.56.617,SWB_debug,2022.2.4,None,
mix,0.0,-0.8,0.96,top,left,1.68,0,0,3,3,40,,,,,,,,,,,,,,,,,38.64983999999822,38.64983999999822,0.012841374991694465,left,0.9418205839756411,-0.36342592592592593,-0.19560185185185186,0,0,0,39.627760000003036,39.627760000003036,41.645787125016795,41.645787125016795,43.640744000003906,45.33612379201804,,,,,,,,,,,,,,,,testtttt,001,2023-03-30_16h27.56.617,SWB_debug,2022.2.4,None,
loss,-0.4,-0.73,0.0,bottom,left,1.44,0,0,4,4,121,,,,,,,,,,,,,,,,,45.33612379201804,45.33612379201804,0.014214208000339568,right,1.0015087499923538,-0.36342592592592593,-0.19560185185185186,0,0,0,46.364229625003645,46.364229625003645,48.382400000002235,48.382400000002235,50.362522834009724,51.80376120901201,,,,,,,,,,,,,,,,testtttt,001,2023-03-30_16h27.56.617,SWB_debug,2022.2.4,None,
loss,-0.4,-1.68,0.0,top,right,1.1,0,0,5,5,128,,,,,,,,,,,,,,,,,51.80376120901201,51.80376120901201,0.0075080829847138375,right,0.4424067079962697,-0.36342592592592593,-0.19560185185185186,0,0,0,52.26600070900167,52.26600070900167,54.28604970901506,54.28604970901506,60.019320958992466,61.133031042001676,56.282355667004595,56.282355667004595,56.282355667004595,59.373927625012584,59.373927625012584,4.46875,3.083208750002086,space,0.6282386659877375,,,,,,,testtttt,001,2023-03-30_16h27.56.617,SWB_debug,2022.2.4,None,
gain,0.2,0.0,0.5,bottom,left,1.19,1,0,6,6,54,,,,,,,,,,,,,,,,,61.133031042001676,61.133031042001676,0.013203375012381002,right,0.768511041009333,-0.2013888888888889,-0.07060185185185185,0,0,0,61.92968800000381,61.92968800000381,63.93623791699065,63.93623791699065,65.93235375001677,67.13291504199151,,,,,,,,,,,,,,,,testtttt,001,2023-03-30_16h27.56.617,SWB_debug,2022.2.4,None,
mix,0.0,-0.5,0.15,bottom,right,1.0,0,0,7,7,8,,,,,,,,,,,,,,,,,67.13291504199151,67.13291504199151,0.012232542008860037,right,0.3113415419938974,-0.2013888888888889,-0.07060185185185185,0,0,0,67.46621195899206,67.46621195899206,69.47004050001851,69.47004050001851,71.47377091701492,72.47858133399859,,,,,,,,,,69.47004050001851,69.47004050001851,,,,,testtttt,001,2023-03-30_16h27.56.617,SWB_debug,2022.2.4,None,
mix,0.0,-1.5,0.78,top,left,1.22,0,0,8,8,30,,,,,,,,,,,,,,,,,72.47858133399859,72.47858133399859,0.009972458996344358,right,0.35584616698906757,-0.2013888888888889,-0.07060185185185185,0,0,0,72.86249841700192,72.86249841700192,74.86346437499742,74.86346437499742,79.88626050000312,81.11280416700174,76.86852970899781,76.86852970899781,76.86852970899781,79.3739730840025,79.3739730840025,8.458333333333334,2.4833994589862414,space,0.49417395901400596,,,,,,,testtttt,001,2023-03-30_16h27.56.617,SWB_debug,2022.2.4,None,
loss,-0.2,-0.63,0.0,top,left,1.73,1,0,9,9,106,,,,,,,,,,,,,,,,,81.11280416700174,81.11280416700174,0.009659667004598305,right,0.5069802920043003,0.3287037037037037,-0.2025462962962963,0,0,0,81.64930658400408,81.64930658400408,83.65300908399513,83.65300908399513,85.6571573340043,87.40842554200208,,,,,,,,,,,,,,,,testtttt,001,2023-03-30_16h27.56.617,SWB_debug,2022.2.4,None,
mix,0.0,-0.8,1.6,top,right,1.27,0,0,10,10,42,,,,,,,,,,,,,,,,,87.40842554200208,87.40842554200208,0.011719125002855435,right,0.7795687920006458,0.3287037037037037,-0.2025462962962963,0,0,0,88.20904874999542,88.20904874999542,90.22027229200467,90.22027229200467,92.21543574999669,93.50286254199455,,,,,,,,,,,,,,,,testtttt,001,2023-03-30_16h27.56.617,SWB_debug,2022.2.4,None,
mix,0.0,-1.1,0.33,top,right,1.04,0,0,11,11,22,,,,,,,,,,,,,,,,,93.50286254199455,93.50286254199455,0.008321583009092137,right,0.4932984579936601,0.3287037037037037,-0.2025462962962963,0,0,0,94.01985679200152,94.01985679200152,96.03551733400673,96.03551733400673,100.4778297500161,101.54010229199775,98.02555666700937,98.02555666700937,98.02555666700937,100.08221883399528,100.08221883399528,8.458333333333334,2.0318649169930723,space,0.3798537499969825,,,,,,,testtttt,001,2023-03-30_16h27.56.617,SWB_debug,2022.2.4,None,
gain,0.6,0.0,2.52,bottom,right,1.03,0,0,12,12,98,,,,,,,,,,,,,,,,,101.54010229199775,101.54010229199775,0.012363666988676414,left,0.7979911250004079,0.3287037037037037,-0.2025462962962963,0,0,0,102.37179287499748,102.37179287499748,104.37656887501362,104.37656887501362,106.38212520899833,107.41967670901795,,,,,,,,,,,,,,,,testtttt,001,2023-03-30_16h27.56.617,SWB_debug,2022.2.4,None,
loss,-0.6,-2.52,0.0,bottom,right,1.73,1,0,13,13,148,,,,,,,,,,,,,,,,,107.41967670901795,107.41967670901795,0.00915066699963063,right,0.3806730829819571,0.3287037037037037,-0.2025462962962963,0,0,0,107.83653737499844,107.83653737499844,109.8509049169952,109.8509049169952,111.84890866701608,113.58527683399734,,,,,,,,,,,,,,,,testtttt,001,2023-03-30_16h27.56.617,SWB_debug,2022.2.4,None,
loss,-0.2,-0.72,0.0,bottom,right,1.49,0,0,14,14,107,,,,,,,,,,,,,,,,,113.58527683399734,113.58527683399734,0.0069492080074269325,right,0.4929990000091493,0.3287037037037037,-0.2025462962962963,0,0,0,114.10274475000915,114.10274475000915,116.11462370899972,116.11462370899972,120.24419820899493,121.73515449999832,118.11540420900565,118.11540420900565,118.11540420900565,119.71553370900801,119.71553370900801,8.458333333333334,1.5839894590026233,space,0.5146765840181615,,,,,,,testtttt,001,2023-03-30_16h27.56.617,SWB_debug,2022.2.4,None,
loss,-0.6,-1.33,0.0,top,right,1.69,0,0,15,15,143,,,,,,,,,,,,,,,,,121.73515449999832,121.73515449999832,0.006934458011528477,right,0.49077262499486096,0.3287037037037037,-0.2025462962962963,0,0,0,122.25240791699616,122.25240791699616,124.26964495901484,124.26964495901484,126.26549108399195,127.97384824999608,,,,,,,,,,,,,,,,testtttt,001,2023-03-30_16h27.56.617,SWB_debug,2022.2.4,None,
mix,0.0,-0.8,0.8,bottom,left,1.72,0,0,16,16,20,,,,,,,,,,,,,,,,,127.97384824999608,127.97384824999608,0.011954125016927719,left,0.5974824159929994,0.3287037037037037,-0.2025462962962963,0,0,0,128.6028369590058,128.6028369590058,130.61103045899654,130.61103045899654,132.6040352919954,134.32761595901684,,,,,,,,,,,,,,,,testtttt,001,2023-03-30_16h27.56.617,SWB_debug,2022.2.4,None,
mix,0.0,-0.5,0.5,top,left,1.03,0,0,17,17,13,,,,,,,,,,,,,,,,,134.32761595901684,134.32761595901684,0.009664458018960431,right,0.3889717080164701,0.3287037037037037,-0.2025462962962963,0,0,0,134.74842474999605,134.74842474999605,136.77380254201125,136.77380254201125,141.10105829199892,142.13609899999574,138.75699541700305,138.75699541700305,138.75699541700305,140.66258933400968,140.66258933400968,8.458333333333334,1.8989777079841588,space,0.4242008330184035,,,,,,,testtttt,001,2023-03-30_16h27.56.617,SWB_debug,2022.2.4,None,
gain,0.3,0.0,0.74,bottom,right,1.63,0,0,18,18,64,,,,,,,,,,,,,,,,,142.13609899999574,142.13609899999574,0.005099457979667932,right,0.5244657919974998,0.3287037037037037,-0.2025462962962963,0,0,0,142.69623554201098,142.69623554201098,144.7135210839915,144.7135210839915,146.70710608400987,148.34789579201606,,,,,,,,,,,,,,,,testtttt,001,2023-03-30_16h27.56.617,SWB_debug,2022.2.4,None,
mix,0.0,-0.3,0.25,top,left,1.67,1,0,19,19,5,,,,,,,,,,,,,,,,,148.34789579201606,148.34789579201606,0.011791875003837049,right,0.5754040829779115,0.3287037037037037,-0.2025462962962963,0,0,0,148.9483932919975,148.9483932919975,150.9481637919962,150.9481637919962,152.94869254200603,154.62308908399427,,,,,,,,,,,,,,,,testtttt,001,2023-03-30_16h27.56.617,SWB_debug,2022.2.4,None,
gain,0.6,0.0,1.09,bottom,right,1.43,0,0,20,20,91,,,,,,,,,,,,,,,,,154.62308908399427,154.62308908399427,0.009116792003624141,right,0.5257479170104489,0.3287037037037037,-0.2025462962962963,0,0,0,155.1712941250007,155.1712941250007,157.1885292500083,157.1885292500083,161.56094850000227,163.007288666995,159.17705870899954,159.17705870899954,159.17705870899954,161.2819798339915,161.2819798339915,8.458333333333334,2.0756960829894524,space,0.2627369579859078,,,,,,,testtttt,001,2023-03-30_16h27.56.617,SWB_debug,2022.2.4,None,
loss,-0.4,-0.67,0.0,bottom,left,1.12,1,0,21,21,120,,,,,,,,,,,,,,,,,163.007288666995,163.007288666995,0.012030041019897908,left,0.37373641700833105,0.3287037037037037,-0.2025462962962963,0,0,0,163.41758666699752,163.41758666699752,165.43421762500657,165.43421762500657,167.42370604199823,168.56096854200587,,,,,,,,,,,,,,,,testtttt,001,2023-03-30_16h27.56.617,SWB_debug,2022.2.4,None,
gain,0.6,0.0,1.33,top,right,1.84,0,0,22,22,93,,,,,,,,,,,,,,,,,168.56096854200587,168.56096854200587,0.007135040999855846,right,0.41199341698666103,0.3287037037037037,-0.2025462962962963,0,0,0,168.99570312499418,168.99570312499418,171.00914137499058,171.00914137499058,173.00698516701232,174.86278250001487,,,,,,,,,,,,,,,,testtttt,001,2023-03-30_16h27.56.617,SWB_debug,2022.2.4,None,
loss,-0.2,-0.56,0.0,top,left,1.68,0,0,23,23,105,,,,,,,,,,,,,,,,,174.86278250001487,174.86278250001487,0.00864241601084359,left,0.3897832920192741,0.3287037037037037,-0.2025462962962963,0,0,0,175.2791043340112,175.2791043340112,177.29552725001122,177.29552725001122,181.4017451670079,183.095973959018,179.28489120901213,179.28489120901213,179.28489120901213,181.12364125001477,181.12364125001477,8.458333333333334,1.8152899999986403,space,0.2662219589983579,,,,,,,testtttt,001,2023-03-30_16h27.56.617,SWB_debug,2022.2.4,None,
loss,-0.6,-1.9,0.0,bottom,left,1.39,0,0,24,24,146,,,,,,,,,,,,,,,,,183.095973959018,183.095973959018,0.010224958008620888,right,2.014409124996746,0.3287037037037037,-0.2025462962962963,0,0,0,185.14758625000832,185.14758625000832,187.16083983401768,187.16083983401768,189.15688324999064,190.5631892090023,,,,,,,,,,,,,,,,testtttt,001,2023-03-30_16h27.56.617,SWB_debug,2022.2.4,None,
loss,-0.2,-0.84,0.0,bottom,right,1.69,0,0,25,25,108,,,,,,,,,,,,,,,,,190.5631892090023,190.5631892090023,0.009936042013578117,right,0.29444641698501073,0.3287037037037037,-0.2025462962962963,0,0,0,190.89310808401206,190.89310808401206,192.90721958401264,192.90721958401264,194.90691104199504,196.61000870901626,,,,,,,,,,,,,,,,testtttt,001,2023-03-30_16h27.56.617,SWB_debug,2022.2.4,None,
loss,-0.2,-0.5,0.0,bottom,left,1.23,0,0,26,26,104,,,,,,,,,,,,,,,,,196.61000870901626,196.61000870901626,0.0044828329992014915,right,0.5200070419814438,0.3287037037037037,-0.2025462962962963,0,0,0,197.1627274590137,197.1627274590137,199.17661054199561,199.17661054199561,204.3356262500165,205.58254133400624,201.16822791699087,201.16822791699087,201.16822791699087,204.00684375001583,204.00684375001583,8.458333333333334,2.816157709021354,space,0.3069991249940358,,,,,,,testtttt,001,2023-03-30_16h27.56.617,SWB_debug,2022.2.4,None,
mix,0.0,-1.1,1.1,top,right,1.77,0,0,27,27,43,,,,,,,,,,,,,,,,,205.58254133400624,205.58254133400624,0.011860583996167406,right,1.3615262909734156,0.3287037037037037,-0.2025462962962963,0,0,0,206.969059791998,206.969059791998,208.9852787500131,208.9852787500131,210.97329220900428,212.74307629201212,,,,,,,,,,,,,,,,testtttt,001,2023-03-30_16h27.56.617,SWB_debug,2022.2.4,None,
mix,0.0,-0.3,0.45,bottom,left,1.4,0,0,28,28,35,,,,,,,,,,,,,,,,,212.74307629201212,212.74307629201212,0.006428583990782499,right,1.061075500008883,0.3287037037037037,-0.2025462962962963,0,0,0,213.83303766700556,213.83303766700556,215.83982995900442,215.83982995900442,217.8402154170035,219.24959783401573,,,,,,,,,,,,,,,,testtttt,001,2023-03-30_16h27.56.617,SWB_debug,2022.2.4,None,
mix,0.0,-0.3,0.6,top,left,1.06,0,0,29,29,36,,,,,,,,,,,,,,,,,219.24959783401573,219.24959783401573,0.004323667002609,left,1.7271545410039835,0.3287037037037037,-0.2025462962962963,0,0,0,220.9990367089922,220.9990367089922,223.0067442500149,223.0067442500149,228.51530774999992,229.59792404199834,224.99947841701214,224.99947841701214,224.99947841701214,228.17021441701218,228.17021441701218,8.458333333333334,3.1568403329874855,space,0.32093374998657964,,,,,,,testtttt,001,2023-03-30_16h27.56.617,SWB_debug,2022.2.4,None,
gain,0.2,0.0,0.36,top,right,1.29,0,0,30,30,51,,,,,,,,,,,,,,,,,229.59792404199834,229.59792404199834,0.01117233297554776,right,1.0226831670152023,0.3287037037037037,-0.2025462962962963,0,0,0,230.65298887499375,230.65298887499375,232.6593407500186,232.6593407500186,234.65679783400265,235.95955762499943,,,,,,,,,,,,,,,,testtttt,001,2023-03-30_16h27.56.617,SWB_debug,2022.2.4,None,
mix,0.0,-0.3,0.36,top,left,1.24,0,0,31,31,34,,,,,,,,,,,,,,,,,235.95955762499943,235.95955762499943,0.005237249977653846,right,0.4565620420034975,0.3287037037037037,-0.2025462962962963,0,0,0,236.4441516250081,236.4441516250081,238.45774775001337,238.45774775001337,240.45679550000932,241.71202070900472,,,,,,,,,,,,,,,,testtttt,001,2023-03-30_16h27.56.617,SWB_debug,2022.2.4,None,
gain,0.2,0.0,0.4,bottom,right,1.28,0,0,32,32,52,,,,,,,,,,,,,,,,,241.71202070900472,241.71202070900472,0.009139834000961855,left,0.5727576249919366,0.3287037037037037,-0.2025462962962963,0,0,0,242.3149106670171,242.3149106670171,244.32682400001795,244.32682400001795,247.68194425001275,248.9844369170023,246.3233369590016,246.3233369590016,246.3233369590016,247.40412570899935,247.40412570899935,8.458333333333334,1.0735529579978902,space,0.2559363750042394,,,,,,,testtttt,001,2023-03-30_16h27.56.617,SWB_debug,2022.2.4,None,
loss,-0.3,-0.95,0.0,bottom,right,1.02,0,0,33,33,116,,,,,,,,,,,,,,,,,248.9844369170023,248.9844369170023,0.012208790984004736,right,0.6486058329755906,0.3287037037037037,-0.2025462962962963,0,0,0,249.65986908401828,249.65986908401828,251.67644516701694,251.67644516701694,253.66494149999926,254.7034838340187,,,,,,,,,,,,,,,,testtttt,001,2023-03-30_16h27.56.617,SWB_debug,2022.2.4,None,
gain,0.2,0.0,0.72,bottom,right,1.71,0,0,34,34,57,,,,,,,,,,,,,,,,,254.7034838340187,254.7034838340187,0.008938750019297004,left,1.8985738749906886,0.3287037037037037,-0.2025462962962963,0,0,0,256.6331955420028,256.6331955420028,258.63264091699966,258.63264091699966,260.62042812499567,262.3445705840131,,,,,,,,,,,,,,,,testtttt,001,2023-03-30_16h27.56.617,SWB_debug,2022.2.4,None,
gain,0.3,0.0,1.08,top,right,1.03,1,0,35,35,67,,,,,,,,,,,,,,,,,262.3445705840131,262.3445705840131,0.010246291989460588,right,0.6651702079980168,0.3287037037037037,-0.2025462962962963,0,0,0,263.0325382500014,263.0325382500014,265.0311957090162,265.0311957090162,268.52648141700774,269.5604881250183,267.02637312500156,267.02637312500156,267.02637312500156,268.22328491701046,268.22328491701046,8.458333333333334,1.1747562079981435,space,0.2898069999937434,265.0311957090162,265.0311957090162,267.02637312500156,267.02637312500156,,,testtttt,001,2023-03-30_16h27.56.617,SWB_debug,2022.2.4,None,
gain,0.2,0.0,0.56,top,left,1.92,0,0,36,36,55,,,,,,,,,,,,,,,,,269.5604881250183,269.5604881250183,0.006844582996563986,right,1.7060629159968812,0.3287037037037037,-0.2025462962962963,0,0,0,271.2929481670144,271.2929481670144,273.30097287500394,273.30097287500394,275.2982772499963,277.2299957500072,,,,,,,,,,,,,,,,testtttt,001,2023-03-30_16h27.56.617,SWB_debug,2022.2.4,None,
mix,0.0,-0.5,0.33,top,left,1.51,1,0,37,37,11,,,,,,,,,,,,,,,,,277.2299957500072,277.2299957500072,0.011170249985298142,right,0.4835624999832362,0.3287037037037037,-0.2025462962962963,0,0,0,277.73341620899737,277.73341620899737,279.73968983400846,279.73968983400846,281.7314123340184,283.24841091700364,,,,,,,,,,,,,,,,testtttt,001,2023-03-30_16h27.56.617,SWB_debug,2022.2.4,None,
mix,0.0,-0.3,0.09,top,right,1.24,0,0,38,38,1,,,,,,,,,,,,,,,,,283.24841091700364,283.24841091700364,0.00517658400349319,left,0.3313832500134595,0.3287037037037037,-0.2025462962962963,0,0,0,283.6002335840021,283.6002335840021,285.6156805420178,285.6156805420178,288.91499225000734,290.1733890839969,287.60649108400685,287.60649108400685,287.60649108400685,288.6874576669943,288.6874576669943,8.458333333333334,1.0742130420112517,space,0.19998083298560232,,,,,,,testtttt,001,2023-03-30_16h27.56.617,SWB_debug,2022.2.4,None,
mix,0.0,-0.5,0.26,bottom,left,1.34,0,0,39,39,10,,,,,,,,,,,,,,,,,290.1733890839969,290.1733890839969,0.0046830000064801425,right,0.5883743329904974,0.3287037037037037,-0.2025462962962963,0,0,0,290.7822835840052,290.7822835840052,292.7897660419985,292.7897660419985,294.7981659170182,296.16185429200414,,,,,,,,,,,,,,,,testtttt,001,2023-03-30_16h27.56.617,SWB_debug,2022.2.4,None,
loss,-0.6,-1.49,0.0,bottom,left,1.56,0,0,40,40,144,,,,,,,,,,,,,,,,,296.16185429200414,296.16185429200414,0.009603667014744133,left,0.415334791992791,0.3287037037037037,-0.2025462962962963,0,0,0,296.59758600001805,296.59758600001805,298.5995089170174,298.5995089170174,300.6065702920023,302.18607420899207,,,,,,,,,,298.5995089170174,298.5995089170174,,,,,testtttt,001,2023-03-30_16h27.56.617,SWB_debug,2022.2.4,None,
gain,0.5,0.0,1.0,bottom,right,1.98,0,0,41,41,82,,,,,,,,,,,,,,,,,302.18607420899207,302.18607420899207,0.00902991701150313,right,0.4459935830091126,0.3287037037037037,-0.2025462962962963,0,0,0,302.6510419170081,302.6510419170081,304.66096454201033,304.66096454201033,309.3665189589956,311.35419429201283,306.6564908750006,306.6564908750006,306.6564908750006,308.84809908401803,308.84809908401803,8.458333333333334,2.1743956249847542,space,0.5025555839820299,,,,,,,testtttt,001,2023-03-30_16h27.56.617,SWB_debug,2022.2.4,None,
gain,0.3,0.0,1.5,bottom,left,1.04,0,0,42,42,69,,,,,,,,,,,,,,,,,311.35419429201283,311.35419429201283,0.009896500007016584,right,0.9961555000045337,0.3287037037037037,-0.2025462962962963,0,0,0,312.3783371669997,312.3783371669997,314.3929236670083,314.3929236670083,316.38139104199945,317.42946924999706,,,,,,,,,,,,,,,,testtttt,001,2023-03-30_16h27.56.617,SWB_debug,2022.2.4,None,
mix,0.0,-1.5,2.25,bottom,right,1.51,0,0,43,43,48,,,,,,,,,,,,,,,,,317.42946924999706,317.42946924999706,0.011699041991960257,right,0.5047373330162372,0.3287037037037037,-0.2025462962962963,0,0,0,317.9668923749996,317.9668923749996,319.97452916699694,319.97452916699694,321.96167212500586,323.48045991701656,,,,,,,,,,,,,,,,testtttt,001,2023-03-30_16h27.56.617,SWB_debug,2022.2.4,None,
loss,-0.4,-0.99,0.0,top,left,1.33,0,0,44,44,124,,,,,,,,,,,,,,,,,323.48045991701656,323.48045991701656,0.011626708990661427,right,0.6532317920064088,0.3287037037037037,-0.2025462962962963,0,0,0,324.1603042920178,324.1603042920178,326.1768513749994,326.1768513749994,329.4147853339964,330.7535708750074,328.16481087499415,328.16481087499415,328.16481087499415,329.2314263340086,329.2314263340086,8.458333333333334,1.042748208012199,space,0.16531679200124927,,,,,,,testtttt,001,2023-03-30_16h27.56.617,SWB_debug,2022.2.4,None,
gain,0.2,0.0,0.44,top,right,1.06,0,0,45,45,53,,,,,,,,,,,,,,,,,330.7535708750074,330.7535708750074,0.011934417008887976,right,0.5467137500236277,0.3287037037037037,-0.2025462962962963,0,0,0,331.33386591699673,331.33386591699673,333.3388362500118,333.3388362500118,335.3394306249975,336.41100575000746,,,,,,,,,,,,,,,,testtttt,001,2023-03-30_16h27.56.617,SWB_debug,2022.2.4,None,
loss,-0.3,-1.08,0.0,top,right,1.25,0,0,46,46,117,,,,,,,,,,,,,,,,,336.41100575000746,336.41100575000746,0.009230583993485197,right,0.6867028340057004,0.3287037037037037,-0.2025462962962963,0,0,0,337.116855166998,337.116855166998,339.1347307499964,339.1347307499964,341.1115800419939,342.38211754200165,,,,,,,,,,,,,,,,testtttt,001,2023-03-30_16h27.56.617,SWB_debug,2022.2.4,None,
gain,0.5,0.0,1.4,bottom,left,1.76,0,0,47,47,85,,,,,,,,,,,,,,,,,342.38211754200165,342.38211754200165,0.01166658301372081,right,0.47945387501385994,0.3287037037037037,-0.2025462962962963,0,0,0,342.89616504200967,342.89616504200967,344.9014275840018,344.9014275840018,348.917257958994,350.6987831250008,346.9063014170097,346.9063014170097,346.9063014170097,348.72297583401087,348.72297583401087,8.458333333333334,1.7994159589870833,space,0.17644745897268876,,,,,,,testtttt,001,2023-03-30_16h27.56.617,SWB_debug,2022.2.4,None,
loss,-0.5,-0.91,0.0,top,left,1.0,0,0,48,48,131,,,,,,,,,,,,,,,,,350.6987831250008,350.6987831250008,0.011712999985320494,left,0.45010924997041,0.3287037037037037,-0.2025462962962963,0,0,0,351.1734223749954,351.1734223749954,353.1847994590062,353.1847994590062,355.1806059590017,356.18698762499844,,,,,,,,,,,,,,,,testtttt,001,2023-03-30_16h27.56.617,SWB_debug,2022.2.4,None,
loss,-0.6,-1.68,0.0,bottom,left,1.1,0,0,49,49,145,,,,,,,,,,,,,,,,,356.18698762499844,356.18698762499844,0.009657916991272941,left,0.39392999999108724,0.3287037037037037,-0.2025462962962963,0,0,0,356.60166245899745,356.60166245899745,358.60193050000817,358.60193050000817,360.6149066250073,361.71889279200695,,,,,,,,,,,,,,,,testtttt,001,2023-03-30_16h27.56.617,SWB_debug,2022.2.4,None,
gain,0.3,0.0,0.84,top,left,1.82,0,0,50,50,65,,,,,,,,,,,,,,,,,361.71889279200695,361.71889279200695,0.009757332998560742,right,0.45223100000293925,0.3287037037037037,-0.2025462962962963,0,0,0,362.1943138749921,362.1943138749921,364.21011795900995,364.21011795900995,367.66478354201536,369.50700529199094,366.2062913340051,366.2062913340051,366.2062913340051,367.498007999995,367.498007999995,8.458333333333334,1.2822842079913244,space,0.14511858302284963,,,,,,,testtttt,001,2023-03-30_16h27.56.617,SWB_debug,2022.2.4,None,
mix,0.0,-0.8,0.16,bottom,right,1.8,0,0,51,51,14,,,,,,,,,,,,,,,,,369.50700529199094,369.50700529199094,0.011609499983023852,right,0.5588753749907482,0.3287037037037037,-0.2025462962962963,0,0,0,370.101469834015,370.101469834015,372.11003312500543,372.11003312500543,374.10606499999994,375.9149393340049,,,,,,,,,,,,,,,,testtttt,001,2023-03-30_16h27.56.617,SWB_debug,2022.2.4,None,
mix,0.0,-1.1,0.44,bottom,right,1.19,0,0,52,52,23,,,,,,,,,,,,,,,,,375.9149393340049,375.9149393340049,0.009904249978717417,left,0.5035095420025755,0.3287037037037037,-0.2025462962962963,0,0,0,376.4435170420038,376.4435170420038,378.4565670840093,378.4565670840093,380.4480102090165,381.6518399589986,,,,,,,,,,,,,,,,testtttt,001,2023-03-30_16h27.56.617,SWB_debug,2022.2.4,None,
loss,-0.4,-1.26,0.0,top,right,1.05,0,0,53,53,126,,,,,,,,,,,,,,,,,381.6518399589986,381.6518399589986,0.008156374999089167,right,0.576276042003883,0.3287037037037037,-0.2025462962962963,0,0,0,382.2601540000178,382.2601540000178,384.26754225001787,384.26754225001787,387.64806733399746,388.702327417006,386.2813392500102,386.2813392500102,386.2813392500102,387.5061659589992,387.5061659589992,8.458333333333334,1.2242205829825252,space,0.1177186669956427,,,,,,,testtttt,001,2023-03-30_16h27.56.617,SWB_debug,2022.2.4,None,
mix,0.0,-1.1,0.9,top,right,1.8,0,0,54,54,26,,,,,,,,,,,,,,,,,388.702327417006,388.702327417006,0.008958666992839426,left,0.7736649579892401,0.3287037037037037,-0.2025462962962963,0,0,0,389.5060700419999,389.5060700419999,391.5059349590156,391.5059349590156,393.4946575000067,395.3177798750112,,,,,,,,,,,,,,,,testtttt,001,2023-03-30_16h27.56.617,SWB_debug,2022.2.4,None,
mix,0.0,-0.8,0.32,bottom,right,1.95,0,0,55,55,16,,,,,,,,,,,,,,,,,395.3177798750112,395.3177798750112,0.006861666974145919,right,0.4521921669947915,0.3287037037037037,-0.2025462962962963,0,0,0,395.792886042007,395.792886042007,397.80544050000026,397.80544050000026,399.7885267919919,401.75750883400906,,,,,,,,,,,,,,,,testtttt,001,2023-03-30_16h27.56.617,SWB_debug,2022.2.4,None,
loss,-0.5,-1.58,0.0,top,left,1.28,0,0,56,56,136,,,,,,,,,,,,,,,,,401.75750883400906,401.75750883400906,0.011772625002777204,left,0.4257703750045039,0.3287037037037037,-0.2025462962962963,0,0,0,402.20793129201047,402.20793129201047,404.2164570839959,404.2164570839959,407.65949758401257,408.95673529201304,406.2311848340032,406.2311848340032,406.2311848340032,407.4805743340112,407.4805743340112,8.458333333333334,1.240010749985231,space,0.16264866600977257,,,,,,,testtttt,001,2023-03-30_16h27.56.617,SWB_debug,2022.2.4,None,
gain,0.4,0.0,2.0,bottom,left,1.67,0,0,57,57,79,,,,,,,,,,,,,,,,,408.95673529201304,408.95673529201304,0.01170508298673667,right,0.46080024997354485,0.3287037037037037,-0.2025462962962963,0,0,0,409.44954916700954,409.44954916700954,411.4586407500028,411.4586407500028,413.452885125007,415.13583199999994,,,,,,,,,,,,,,,,testtttt,001,2023-03-30_16h27.56.617,SWB_debug,2022.2.4,None,
loss,-0.3,-0.74,0.0,bottom,right,1.4,0,0,58,58,114,,,,,,,,,,,,,,,,,415.13583199999994,415.13583199999994,0.009071084001334384,left,0.4659211660036817,0.3287037037037037,-0.2025462962962963,0,0,0,415.63700520899147,415.63700520899147,417.6529699169914,417.6529699169914,419.6478722920001,421.05766737501835,,,,,,,,,,,,,,,,testtttt,001,2023-03-30_16h27.56.617,SWB_debug,2022.2.4,None,
gain,0.6,0.0,1.68,bottom,left,1.95,0,0,59,59,95,,,,,,,,,,,,,,,,,421.05766737501835,421.05766737501835,0.011877124983584508,right,0.49461845800396986,0.3287037037037037,-0.2025462962962963,0,0,0,421.5783612499945,421.5783612499945,423.5851217090094,423.5851217090094,427.4845943750115,429.45534208399476,425.5811274170119,425.5811274170119,425.5811274170119,427.20370162499603,427.20370162499603,8.458333333333334,1.6179797079821583,space,0.26788941700942814,,,,,,,testtttt,001,2023-03-30_16h27.56.617,SWB_debug,2022.2.4,None,
mix,0.0,-0.8,1.2,bottom,right,1.69,1,0,60,60,41,,,,,,,,,,,,,,,,,429.45534208399476,429.45534208399476,0.012034457991831005,right,0.4104285829816945,0.3287037037037037,-0.2025462962962963,0,0,0,429.8893216669967,429.8893216669967,431.9098299170146,431.9098299170146,433.9060370000079,435.62456937500974,,,,,,,,,,,,,,,,testtttt,001,2023-03-30_16h27.56.617,SWB_debug,2022.2.4,None,
loss,-0.3,-0.5,0.0,bottom,left,1.9,0,0,61,61,110,,,,,,,,,,,,,,,,,435.62456937500974,435.62456937500974,0.012221667013363913,right,0.9006599580170587,0.3287037037037037,-0.2025462962962963,0,0,0,436.5540749170177,436.5540749170177,438.56669770900044,438.56669770900044,440.5560864589934,442.474039541994,,,,,,,,,,,,,,,,testtttt,001,2023-03-30_16h27.56.617,SWB_debug,2022.2.4,None,
mix,0.0,-0.8,0.24,top,left,1.51,0,0,62,62,15,,,,,,,,,,,,,,,,,442.474039541994,442.474039541994,0.011528249975526705,left,0.5427984170091804,0.3287037037037037,-0.2025462962962963,0,0,0,443.04347258401685,443.04347258401685,445.0593973340001,445.0593973340001,448.455993459007,449.9803089170018,447.04758729200694,447.04758729200694,447.04758729200694,448.23022866700194,448.23022866700194,8.458333333333334,1.1739819159847684,space,0.20415774997672997,,,,,,,testtttt,001,2023-03-30_16h27.56.617,SWB_debug,2022.2.4,None,
loss,-0.3,-1.5,0.0,bottom,left,1.37,0,0,63,63,119,,,,,,,,,,,,,,,,,449.9803089170018,449.9803089170018,0.011747334006940946,right,0.503923374984879,0.3287037037037037,-0.2025462962962963,0,0,0,450.5124086670112,450.5124086670112,452.51790279199486,452.51790279199486,454.5143921250128,455.89648545900127,,,,,,,,,,,,,,,,testtttt,001,2023-03-30_16h27.56.617,SWB_debug,2022.2.4,None,
mix,0.0,-1.1,0.57,top,left,1.64,1,0,64,64,24,,,,,,,,,,,,,,,,,455.89648545900127,455.89648545900127,0.012909207987831905,right,0.34787212501396425,0.3287037037037037,-0.2025462962962963,0,0,0,456.2688298340072,456.2688298340072,458.27544629201293,458.27544629201293,460.26108812500024,461.9129597500141,,,,,,,,,,,,,,,,testtttt,001,2023-03-30_16h27.56.617,SWB_debug,2022.2.4,None,
loss,-0.3,-1.26,0.0,top,right,1.68,0,0,65,65,118,,,,,,,,,,,,,,,,,461.9129597500141,461.9129597500141,0.008848665980622172,right,1.3611211249954067,0.3287037037037037,-0.2025462962962963,0,0,0,463.301198000001,463.301198000001,465.3101163340034,465.3101163340034,469.6510577920126,471.34768075001193,467.3059813750151,467.3059813750151,467.3059813750151,469.3392256250081,469.3392256250081,3.0729166666666665,2.0186159159929957,space,0.29425870801787823,,,,,,,testtttt,001,2023-03-30_16h27.56.617,SWB_debug,2022.2.4,None,
gain,0.2,0.0,0.84,bottom,right,1.6,0,0,66,66,58,,,,,,,,,,,,,,,,,471.34768075001193,471.34768075001193,0.01107929099816829,right,0.5393639160029124,-0.2708333333333333,-0.1701388888888889,0,0,0,471.91982912499225,471.91982912499225,473.925335500011,473.925335500011,475.9308202500106,477.54471112499596,,,,,,,,,,473.925335500011,473.925335500011,,,,,testtttt,001,2023-03-30_16h27.56.617,SWB_debug,2022.2.4,None,
gain,0.6,0.0,1.49,bottom,left,1.86,0,0,67,67,94,,,,,,,,,,,,,,,,,477.54471112499596,477.54471112499596,0.009791333985049278,right,0.39244508399860933,-0.2708333333333333,-0.1701388888888889,0,0,0,477.9598462920112,477.9598462920112,479.9667433750001,479.9667433750001,481.9525769590109,483.81766754199634,,,,,,,,,,,,,,,,testtttt,001,2023-03-30_16h27.56.617,SWB_debug,2022.2.4,None,
gain,0.2,0.0,0.63,top,left,1.45,0,0,68,68,56,,,,,,,,,,,,,,,,,483.81766754199634,483.81766754199634,0.007173375022830442,left,0.5578985839965753,-0.2708333333333333,-0.1701388888888889,0,0,0,484.4004765000136,484.4004765000136,486.41544495901326,486.41544495901326,490.14235479201307,491.6045385840116,488.4094880000048,488.4094880000048,488.4094880000048,489.99754904201836,489.99754904201836,3.0625,1.5653204999980517,space,0.13318837498081848,,,,,,,testtttt,001,2023-03-30_16h27.56.617,SWB_debug,2022.2.4,None,
loss,-0.5,-1.4,0.0,bottom,left,1.31,0,0,69,69,135,,,,,,,,,,,,,,,,,491.6045385840116,491.6045385840116,0.008860791014740244,right,0.6456596670032013,-0.2708333333333333,-0.1701388888888889,0,0,0,492.2890489590063,492.2890489590063,494.2914822919993,494.2914822919993,496.2892448749917,497.6191452089988,,,,,,,,,,,,,,,,testtttt,001,2023-03-30_16h27.56.617,SWB_debug,2022.2.4,None,
gain,0.5,0.0,0.91,top,left,1.95,1,0,70,70,81,,,,,,,,,,,,,,,,,497.6191452089988,497.6191452089988,0.01204079098533839,left,0.4160557080176659,-0.2708333333333333,-0.1701388888888889,0,0,0,498.06678641701,498.06678641701,500.0829927500163,500.0829927500163,502.07254799999646,504.02825200001826,,,,,,,,,,,,,,,,testtttt,001,2023-03-30_16h27.56.617,SWB_debug,2022.2.4,None,
loss,-0.5,-1.0,0.0,bottom,right,1.02,0,0,71,71,132,,,,,,,,,,,,,,,,,504.02825200001826,504.02825200001826,0.00890824999078177,right,0.3238818749960046,-0.2708333333333333,-0.1701388888888889,0,0,0,504.37446291701053,504.37446291701053,506.38115016699885,506.38115016699885,510.3511888750072,511.378101875016,508.37368808401516,508.37368808401516,508.37368808401516,510.15580750000663,510.15580750000663,7.645833333333333,1.7582955839752685,space,0.17762395899626426,,,,,,,testtttt,001,2023-03-30_16h27.56.617,SWB_debug,2022.2.4,None,
gain,0.4,0.0,1.68,top,right,1.53,0,0,72,72,78,,,,,,,,,,,,,,,,,511.378101875016,511.378101875016,0.00923441699706018,right,1.9069380420260131,0.23842592592592593,-0.20601851851851852,0,0,0,513.3105392500001,513.3105392500001,515.3250314590114,515.3250314590114,517.3224644169968,518.860981292004,,,,,,,,,,,,,,,,testtttt,001,2023-03-30_16h27.56.617,SWB_debug,2022.2.4,None,
mix,0.0,-0.3,0.06,top,left,1.15,0,0,73,73,0,,,,,,,,,,,,,,,,,518.860981292004,518.860981292004,0.009094832988921553,right,1.1339010829979088,0.23842592592592593,-0.20601851851851852,0,0,0,520.0297152090061,520.0297152090061,522.0418905419938,522.0418905419938,524.0391701250046,525.1943500000052,,,,,,,,,,,,,,,,testtttt,001,2023-03-30_16h27.56.617,SWB_debug,2022.2.4,None,
loss,-0.4,-2.0,0.0,bottom,left,1.92,0,0,74,74,129,,,,,,,,,,,,,,,,,525.1943500000052,525.1943500000052,0.008868167002219707,left,0.4226041669899132,0.23842592592592593,-0.20601851851851852,0,0,0,525.6446485420165,525.6446485420165,527.6590308750165,527.6590308750165,531.133989791997,533.0593459590164,529.6507028340129,529.6507028340129,529.6507028340129,531.0223933340167,531.0223933340167,7.645833333333333,1.349522208009148,space,0.09996345799299888,,,,,,,testtttt,001,2023-03-30_16h27.56.617,SWB_debug,2022.2.4,None,
loss,-0.3,-0.67,0.0,top,left,1.27,0,0,75,75,113,,,,,,,,,,,,,,,,,533.0593459590164,533.0593459590164,0.007241499988595024,right,0.9899402500013821,0.23842592592592593,-0.2013888888888889,0,0,0,534.0777825000114,534.0777825000114,536.0931305839913,536.0931305839913,538.0884513749916,539.3803785000055,,,,,,,,,,,,,,,,testtttt,001,2023-03-30_16h27.56.617,SWB_debug,2022.2.4,None,
mix,0.0,-0.5,1.0,bottom,right,1.97,0,0,76,76,39,,,,,,,,,,,,,,,,,539.3803785000055,539.3803785000055,0.01153145800344646,left,0.820408542000223,0.23842592592592593,-0.2013888888888889,0,0,0,540.2245823749981,540.2245823749981,542.2301155420137,542.2301155420137,544.2306617090071,546.2217002499965,,,,,,,,,,,,,,,,testtttt,001,2023-03-30_16h27.56.617,SWB_debug,2022.2.4,None,
loss,-0.6,-2.16,0.0,top,right,1.49,0,0,77,77,147,,,,,,,,,,,,,,,,,546.2217002499965,546.2217002499965,0.008949040988227352,right,0.525685083004646,0.23842592592592593,-0.2013888888888889,0,0,0,546.7661078750098,546.7661078750098,548.7844458339969,548.7844458339969,552.0917370840034,553.5889699170075,550.7724185420084,550.7724185420084,550.7724185420084,551.964080500009,551.964080500009,7.645833333333333,1.1840976660023443,space,0.11031650000950322,,,,,,,testtttt,001,2023-03-30_16h27.56.617,SWB_debug,2022.2.4,None,
gain,0.5,0.0,1.58,top,left,1.44,0,0,78,78,86,,,,,,,,,,,,,,,,,553.5889699170075,553.5889699170075,0.012402082997141406,left,0.5373801660025492,0.23842592592592593,-0.2013888888888889,0,0,0,554.1510051669902,554.1510051669902,556.1563007500081,556.1563007500081,558.1556766669964,559.6104072089947,,,,,,,,,,,,,,,,testtttt,001,2023-03-30_16h27.56.617,SWB_debug,2022.2.4,None,
loss,-0.4,-0.8,0.0,top,right,1.39,0,0,79,79,122,,,,,,,,,,,,,,,,,559.6104072089947,559.6104072089947,0.00945774998399429,right,0.9136982499912847,0.23842592592592593,-0.2013888888888889,0,0,0,560.5474891670165,560.5474891670165,562.5671846249897,562.5671846249897,564.5556879999931,565.9579584590101,,,,,,,,,,,,,,,,testtttt,001,2023-03-30_16h27.56.617,SWB_debug,2022.2.4,None,
mix,0.0,-0.5,0.2,top,left,1.39,0,0,80,80,9,,,,,,,,,,,,,,,,,565.9579584590101,565.9579584590101,0.012140333972638473,left,0.6279474999755621,0.23842592592592593,-0.2013888888888889,0,0,0,566.6169923339912,566.6169923339912,568.6260938750056,568.6260938750056,571.9667807499936,573.3610258749977,570.6235781669966,570.6235781669966,570.6235781669966,571.761524875008,571.761524875008,7.645833333333333,1.1238855829869863,space,0.19203862501308322,,,,,,,testtttt,001,2023-03-30_16h27.56.617,SWB_debug,2022.2.4,None,
mix,0.0,-1.5,1.23,bottom,right,1.44,0,0,81,81,32,,,,,,,,,,,,,,,,,573.3610258749977,573.3610258749977,0.009893208974972367,right,0.8956807909999043,0.23842592592592593,-0.2013888888888889,0,0,0,574.2929031249951,574.2929031249951,576.3082625420066,576.3082625420066,578.2972883339971,579.7562276670069,,,,,,,,,,,,,,,,testtttt,001,2023-03-30_16h27.56.617,SWB_debug,2022.2.4,None,
loss,-0.2,-0.44,0.0,top,right,1.19,0,0,82,82,103,,,,,,,,,,,,,,,,,579.7562276670069,579.7562276670069,0.011420915980124846,right,2.061428415996488,0.23842592592592593,-0.2013888888888889,0,0,0,581.8490852090181,581.8490852090181,583.8579394590051,583.8579394590051,585.855334708991,587.0466874169942,,,,,,,,,,,,,,,,testtttt,001,2023-03-30_16h27.56.617,SWB_debug,2022.2.4,None,
loss,-0.4,-1.44,0.0,bottom,right,1.97,0,0,83,83,127,,,,,,,,,,,,,,,,,587.0466874169942,587.0466874169942,0.00741625000955537,right,0.5109041660034563,0.23842592592592593,-0.2013888888888889,0,0,0,587.5815296669898,587.5815296669898,589.5891283749952,589.5891283749952,594.3503544169944,596.3360368339927,591.5888695419999,591.5888695419999,591.5888695419999,594.0717784590088,594.0717784590088,7.645833333333333,2.4698356250009965,space,0.25560633299755864,,,,,,,testtttt,001,2023-03-30_16h27.56.617,SWB_debug,2022.2.4,None,
gain,0.4,0.0,0.89,bottom,right,1.02,0,0,84,84,73,,,,,,,,,,,,,,,,,596.3360368339927,596.3360368339927,0.009026333020301536,left,0.3835872090130579,0.23842592592592593,-0.2013888888888889,0,0,0,596.7430141250079,596.7430141250079,598.7467661669943,598.7467661669943,600.7472291669983,601.789045750018,,,,,,,,,,,,,,,,testtttt,001,2023-03-30_16h27.56.617,SWB_debug,2022.2.4,None,
loss,-0.3,-0.84,0.0,top,left,1.7,0,0,85,85,115,,,,,,,,,,,,,,,,,601.789045750018,601.789045750018,0.01207183301448822,left,1.818452791980235,0.23842592592592593,-0.2013888888888889,0,0,0,603.6345019169967,603.6345019169967,605.6427237500029,605.6427237500029,607.6388156670146,609.3471626669925,,,,,,,,,,,,,,,,testtttt,001,2023-03-30_16h27.56.617,SWB_debug,2022.2.4,None,
mix,0.0,-0.3,0.2,bottom,left,1.95,0,0,86,86,4,,,,,,,,,,,,,,,,,609.3471626669925,609.3471626669925,0.012046124989865348,right,0.4638241249776911,0.23842592592592593,-0.2013888888888889,0,0,0,609.8341115840012,609.8341115840012,611.8414322500175,611.8414322500175,615.5212181250099,617.482307541999,613.8335105419974,613.8335105419974,613.8335105419974,615.1929295840091,615.1929295840091,7.677083333333333,1.3504529159981757,space,0.3058923749777023,,,,,,,testtttt,001,2023-03-30_16h27.56.617,SWB_debug,2022.2.4,None,
gain,0.2,0.0,1.0,top,left,1.54,0,0,87,87,59,,,,,,,,,,,,,,,,,617.482307541999,617.482307541999,0.008591333025833592,left,0.5531935000035446,0.24189814814814814,-0.20949074074074073,0,0,0,618.0663398750185,618.0663398750185,620.0788112090086,620.0788112090086,622.0762925000163,623.6323552090034,,,,,,,,,,,,,,,,testtttt,001,2023-03-30_16h27.56.617,SWB_debug,2022.2.4,None,
loss,-0.3,-0.6,0.0,bottom,right,1.02,0,0,88,88,112,,,,,,,,,,,,,,,,,623.6323552090034,623.6323552090034,0.008692208997672424,right,0.6258202079916373,0.24189814814814814,-0.20949074074074073,0,0,0,624.2807206670113,624.2807206670113,626.2957300420094,626.2957300420094,628.2928835840139,629.3315268339938,,,,,,,,,,,,,,,,testtttt,001,2023-03-30_16h27.56.617,SWB_debug,2022.2.4,None,
mix,0.0,-1.1,0.22,bottom,left,1.81,0,0,89,89,21,,,,,,,,,,,,,,,,,629.3315268339938,629.3315268339938,0.009409208025317639,left,0.5992927920015063,0.24189814814814814,-0.20949074074074073,0,0,0,629.9570023340057,629.9570023340057,631.9653220839973,631.9653220839973,635.2386856669909,637.0672652499925,633.9710962499958,633.9710962499958,633.9710962499958,635.0762532920053,635.0762532920053,7.677083333333333,1.0815704169799574,space,0.15039170801173896,631.9653220839973,631.9653220839973,,,,,testtttt,001,2023-03-30_16h27.56.617,SWB_debug,2022.2.4,None,
loss,-0.5,-2.5,0.0,bottom,right,1.25,0,0,90,90,139,,,,,,,,,,,,,,,,,637.0672652499925,637.0672652499925,0.011790124990511686,right,0.5691221659944858,0.24189814814814814,-0.20949074074074073,0,0,0,637.6673027920187,637.6673027920187,639.6788962499995,639.6788962499995,641.6762888340163,642.9314243750123,,,,,,,,,,,,,,,,testtttt,001,2023-03-30_16h27.56.617,SWB_debug,2022.2.4,None,
gain,0.3,0.0,0.95,bottom,right,1.66,0,0,91,91,66,,,,,,,,,,,,,,,,,642.9314243750123,642.9314243750123,0.008701124985236675,left,0.4833015839976724,0.24189814814814814,-0.20949074074074073,0,0,0,643.4505256249977,643.4505256249977,645.4629739590164,645.4629739590164,647.4512356249907,649.1256754170172,,,,,,,,,,,,,,,,testtttt,001,2023-03-30_16h27.56.617,SWB_debug,2022.2.4,None,
mix,0.0,-1.5,0.3,bottom,right,1.15,0,0,92,92,27,,,,,,,,,,,,,,,,,649.1256754170172,649.1256754170172,0.01327970900456421,left,0.5069496670039371,0.24189814814814814,-0.20949074074074073,0,0,0,649.6540713339928,649.6540713339928,651.6706469999917,651.6706469999917,656.003731083998,657.1656742499908,653.6595795839967,653.6595795839967,653.6595795839967,655.8756332499906,655.8756332499906,7.677083333333333,2.2001697499945294,space,0.115929874998983,,,,,,,testtttt,001,2023-03-30_16h27.56.617,SWB_debug,2022.2.4,None,
gain,0.3,0.0,0.5,bottom,left,1.42,0,0,93,93,60,,,,,,,,,,,,,,,,,657.1656742499908,657.1656742499908,0.008418917015660554,left,1.3439083750126883,0.24189814814814814,-0.20949074074074073,0,0,0,658.5319708340103,658.5319708340103,660.5478328750178,660.5478328750178,662.5428798340145,663.9819490000082,,,,,,,,,,,,,,,,testtttt,001,2023-03-30_16h27.56.617,SWB_debug,2022.2.4,None,
gain,0.5,0.0,1.8,bottom,right,1.82,0,0,94,94,87,,,,,,,,,,,,,,,,,663.9819490000082,663.9819490000082,0.00995650002732873,right,1.223366124992026,0.24189814814814814,-0.20949074074074073,0,0,0,665.2313659170177,665.2313659170177,667.2463560420147,667.2463560420147,669.2428149589978,671.0832056250074,,,,,,,,,,,,,,,,testtttt,001,2023-03-30_16h27.56.617,SWB_debug,2022.2.4,None,
loss,-0.4,-1.12,0.0,top,left,1.77,0,0,95,95,125,,,,,,,,,,,,,,,,,671.0832056250074,671.0832056250074,0.011574208008823916,left,0.490712375001749,0.24189814814814814,-0.20949074074074073,0,0,0,671.5976786669926,671.5976786669926,673.6135512920155,673.6135512920155,678.0379732500005,679.8171549590188,675.6044006670127,675.6044006670127,675.6044006670127,677.809397584002,677.809397584002,7.59375,2.182931541989092,space,0.2099036249855999,,,,,,,testtttt,001,2023-03-30_16h27.56.617,SWB_debug,2022.2.4,None,
mix,0.0,-1.5,3.0,top,left,1.88,0,0,96,96,49,,,,,,,,,,,,,,,,,679.8171549590188,679.8171549590188,0.011784000002080575,right,0.4323886669881176,0.2326388888888889,-0.20601851851851852,0,0,0,680.2852736670175,680.2852736670175,682.2847819589952,682.2847819589952,684.2840601670032,686.1742202920141,,,,,,,,,,,,,,,,testtttt,001,2023-03-30_16h27.56.617,SWB_debug,2022.2.4,None,
loss,-0.5,-1.11,0.0,bottom,right,1.09,1,0,97,97,133,,,,,,,,,,,,,,,,,686.1742202920141,686.1742202920141,0.009027791995322332,left,0.49757924998993985,0.2326388888888889,-0.20601851851851852,0,0,0,686.6988017089898,686.6988017089898,688.7045838340127,688.7045838340127,690.6974885420059,691.8009475840081,,,,,,,,,,,,,,,,testtttt,001,2023-03-30_16h27.56.617,SWB_debug,2022.2.4,None,
gain,0.3,0.0,0.55,top,left,1.9,0,0,98,98,61,,,,,,,,,,,,,,,,,691.8009475840081,691.8009475840081,0.012241374992299825,left,0.39822791700134985,0.2326388888888889,-0.20601851851851852,0,0,0,692.2299940419907,692.2299940419907,694.2342075000051,694.2342075000051,697.7677865840087,699.6707637500076,696.2274131670129,696.2274131670129,696.2274131670129,697.6092501250096,697.6092501250096,7.59375,1.3658903749892488,space,0.12459745799424127,,,,,,,testtttt,001,2023-03-30_16h27.56.617,SWB_debug,2022.2.4,None,
mix,0.0,-1.5,0.45,top,right,1.87,0,0,99,99,28,,,,,,,,,,,,,,,,,699.6707637500076,699.6707637500076,0.0057960420090239495,left,0.4632488749921322,0.2326388888888889,-0.20601851851851852,0,0,0,700.157718167,700.157718167,702.1702651249943,702.1702651249943,704.1677207500034,706.056186834001,,,,,,,,,,,,,,,,testtttt,001,2023-03-30_16h27.56.617,SWB_debug,2022.2.4,None,
gain,0.5,0.0,0.84,top,left,1.98,0,0,100,100,80,,,,,,,,,,,,,,,,,706.056186834001,706.056186834001,0.008989541995106265,right,0.434400166006526,0.2326388888888889,-0.20601851851851852,0,0,0,706.5249947090051,706.5249947090051,708.5394763750082,708.5394763750082,710.5343860000139,712.5256792090076,,,,,,,,,,,,,,,,testtttt,001,2023-03-30_16h27.56.617,SWB_debug,2022.2.4,None,
mix,0.0,-1.5,0.99,top,left,1.37,0,0,101,101,31,,,,,,,,,,,,,,,,,712.5256792090076,712.5256792090076,0.011526709015015513,left,0.3870785000035539,0.2326388888888889,-0.20601851851851852,0,0,0,712.9361825420056,712.9361825420056,714.9544965419918,714.9544965419918,718.2669580840156,719.651560208993,716.9510087920062,716.9510087920062,716.9510087920062,718.0813595000072,718.0813595000072,7.59375,1.1323730830044951,space,0.16251020898926072,,,,,,,testtttt,001,2023-03-30_16h27.56.617,SWB_debug,2022.2.4,None,
gain,0.5,0.0,2.5,bottom,right,1.68,0,0,102,102,89,,,,,,,,,,,,,,,,,719.651560208993,719.651560208993,0.012285916978726164,left,1.4357943329960108,0.2326388888888889,-0.20601851851851852,0,0,0,721.1232217499928,721.1232217499928,723.1383445840038,723.1383445840038,725.1248385840154,726.8163126670115,,,,,,,,,,,,,,,,testtttt,001,2023-03-30_16h27.56.617,SWB_debug,2022.2.4,None,
mix,0.0,-1.1,1.32,bottom,left,1.19,0,0,103,103,44,,,,,,,,,,,,,,,,,726.8163126670115,726.8163126670115,0.012570082995807752,left,0.7971815000055358,0.2326388888888889,-0.20601851851851852,0,0,0,727.6450255420059,727.6450255420059,729.6551836250001,729.6551836250001,731.6592488750175,732.8747341670096,,,,,,,,,,,,,,,,testtttt,001,2023-03-30_16h27.56.617,SWB_debug,2022.2.4,None,
loss,-0.5,-1.8,0.0,bottom,right,1.97,0,0,104,104,137,,,,,,,,,,,,,,,,,732.8747341670096,732.8747341670096,0.012689875002251938,left,0.45448725001187995,0.2326388888888889,-0.20601851851851852,0,0,0,733.3546029170102,733.3546029170102,735.3614921249973,735.3614921249973,739.1275005839998,741.1049752090184,737.3759134589927,737.3759134589927,737.3759134589927,738.8759519589948,738.8759519589948,7.59375,1.499823791993549,space,0.23954412501188926,,,,,,,testtttt,001,2023-03-30_16h27.56.617,SWB_debug,2022.2.4,None,
loss,-0.5,-2.1,0.0,top,left,1.62,0,0,105,105,138,,,,,,,,,,,,,,,,,741.1049752090184,741.1049752090184,0.007901292003225535,left,0.4143044579832349,0.2326388888888889,-0.20601851851851852,0,0,0,741.5503379589936,741.5503379589936,743.5759617089934,743.5759617089934,745.5592147920106,747.1952955000161,,,,,,,,,,,,,,,,testtttt,001,2023-03-30_16h27.56.617,SWB_debug,2022.2.4,None,
loss,-0.6,-1.09,0.0,bottom,right,1.93,1,0,106,106,141,,,,,,,,,,,,,,,,,747.1952955000161,747.1952955000161,0.007080750016029924,right,0.44688141701044515,0.2326388888888889,-0.20601851851851852,0,0,0,747.6662611250067,747.6662611250067,749.676316875004,749.676316875004,751.6758326250128,753.6141996670049,,,,,,,,,,,,,,,,testtttt,001,2023-03-30_16h27.56.617,SWB_debug,2022.2.4,None,
gain,0.6,0.0,1.9,bottom,left,1.51,0,0,107,107,96,,,,,,,,,,,,,,,,,753.6141996670049,753.6141996670049,0.008651249983813614,left,0.4715376250096597,0.2326388888888889,-0.20601851851851852,0,0,0,754.1140447499929,754.1140447499929,756.1311019590066,756.1311019590066,759.6373718749965,761.1669457090029,758.1203482919955,758.1203482919955,758.1203482919955,759.4757407500001,759.4757407500001,7.59375,1.3329067500017118,space,0.13887441699625924,,,,,,,testtttt,001,2023-03-30_16h27.56.617,SWB_debug,2022.2.4,None,
mix,0.0,-1.5,1.5,bottom,right,1.72,0,0,108,108,33,,,,,,,,,,,,,,,,,761.1669457090029,761.1669457090029,0.01200341701041907,left,0.49296654100180604,0.2326388888888889,-0.20601851851851852,0,0,0,761.7008998749952,761.7008998749952,763.6996703339973,763.6996703339973,765.700374625012,767.4406322090072,,,,,,,,,,,,,,,,testtttt,001,2023-03-30_16h27.56.617,SWB_debug,2022.2.4,None,
gain,0.3,0.0,1.26,top,right,1.64,0,0,109,109,68,,,,,,,,,,,,,,,,,767.4406322090072,767.4406322090072,0.00918154200189747,left,0.3473726660013199,0.2326388888888889,-0.20601851851851852,0,0,0,767.8144336669939,767.8144336669939,769.8205371249933,769.8205371249933,771.8175522499951,773.4604284169909,,,,,,,,,,,,,,,,testtttt,001,2023-03-30_16h27.56.617,SWB_debug,2022.2.4,None,
gain,0.3,0.0,0.6,bottom,right,1.72,0,0,110,110,62,,,,,,,,,,,,,,,,,773.4604284169909,773.4604284169909,0.008153583010425791,left,0.324131875007879,0.2326388888888889,-0.20601851851851852,0,0,0,773.8341753339919,773.8341753339919,775.8322323340108,775.8322323340108,779.4325775000034,781.1715761669911,777.8341695000126,777.8341695000126,777.8341695000126,778.9423972920049,778.9423972920049,7.59375,1.1012673749937676,space,0.4747835829912219,,,,,,,testtttt,001,2023-03-30_16h27.56.617,SWB_debug,2022.2.4,None,
loss,-0.5,-0.84,0.0,top,left,1.18,0,0,111,111,130,,,,,,,,,,,,,,,,,781.1715761669911,781.1715761669911,0.012257166992640123,right,0.38895541700185277,0.21643518518518517,-0.20601851851851852,0,0,0,781.5863812089956,781.5863812089956,783.6000567919982,783.6000567919982,785.5768071670027,786.7583125419915,,,,,,,,,,,,,,,,testtttt,001,2023-03-30_16h27.56.617,SWB_debug,2022.2.4,None,
loss,-0.6,-1.2,0.0,top,right,1.98,0,0,112,112,142,,,,,,,,,,,,,,,,,786.7583125419915,786.7583125419915,0.007231958006741479,right,0.3226907909847796,0.21643518518518517,-0.20601851851851852,0,0,0,787.1094757090032,787.1094757090032,789.1248326670029,789.1248326670029,791.1215756250022,793.1140204170079,,,,,,,,,,,,,,,,testtttt,001,2023-03-30_16h27.56.617,SWB_debug,2022.2.4,None,
gain,0.4,0.0,0.67,bottom,left,1.22,0,0,113,113,70,,,,,,,,,,,,,,,,,793.1140204170079,793.1140204170079,0.01150004199007526,right,0.3647506669803988,0.21643518518518517,-0.20601851851851852,0,0,0,793.5094093340158,793.5094093340158,795.5137634169951,795.5137634169951,798.6883239590097,799.929403667018,797.5300653339946,797.5300653339946,797.5300653339946,798.296457666991,798.296457666991,7.447916666666666,0.7659761249960866,space,0.3619693750224542,,,,,,,testtttt,001,2023-03-30_16h27.56.617,SWB_debug,2022.2.4,None,
loss,-0.3,-0.55,0.0,top,left,1.8,0,0,114,114,111,,,,,,,,,,,,,,,,,799.929403667018,799.929403667018,0.012054416991304606,left,0.5162485829787329,0.21643518518518517,-0.20601851851851852,0,0,0,800.4828819590039,800.4828819590039,802.4908568340179,802.4908568340179,804.4882192499936,806.3034269589989,,,,,,,,,,,,,,,,testtttt,001,2023-03-30_16h27.56.617,SWB_debug,2022.2.4,None,
gain,0.5,0.0,2.1,top,left,1.69,0,0,115,115,88,,,,,,,,,,,,,,,,,806.3034269589989,806.3034269589989,0.009173750004265457,left,0.3498481250135228,0.21643518518518517,-0.20601851851851852,0,0,0,806.6740360000113,806.6740360000113,808.6801367500157,808.6801367500157,810.6798239999916,812.3754982090031,,,,,,,,,,,,,,,,testtttt,001,2023-03-30_16h27.56.617,SWB_debug,2022.2.4,None,
loss,-0.6,-3.0,0.0,top,left,1.8,0,0,116,116,149,,,,,,,,,,,,,,,,,812.3754982090031,812.3754982090031,0.010083500004839152,left,0.30835912498878315,0.21643518518518517,-0.20601851851851852,0,0,0,812.707843000011,812.707843000011,814.7138612919953,814.7138612919953,818.1381428340101,819.9461455419951,816.7129878750129,816.7129878750129,816.7129878750129,817.8546670840005,817.8546670840005,7.447916666666666,1.132453792000888,space,0.26402158400742337,,,,,,,testtttt,001,2023-03-30_16h27.56.617,SWB_debug,2022.2.4,None,
mix,0.0,-0.5,0.6,bottom,right,1.16,0,0,117,117,37,,,,,,,,,,,,,,,,,819.9461455419951,819.9461455419951,0.012025582982460037,left,1.644268790987553,0.21643518518518517,-0.20601851851851852,0,0,0,821.6184562499984,821.6184562499984,823.622370416997,823.622370416997,825.6128864999919,826.7847120840161,,,,,,,,,,,,,,,,testtttt,001,2023-03-30_16h27.56.617,SWB_debug,2022.2.4,None,
loss,-0.2,-1.0,0.0,top,left,1.67,0,0,118,118,109,,,,,,,,,,,,,,,,,826.7847120840161,826.7847120840161,0.009680249990196899,left,0.44029908400261775,0.21643518518518517,-0.20601851851851852,0,0,0,827.2570684170059,827.2570684170059,829.2747999590065,829.2747999590065,831.2630793339922,832.9480879589973,,,,,,,,,,,,,,,,testtttt,001,2023-03-30_16h27.56.617,SWB_debug,2022.2.4,None,
gain,0.6,0.0,1.01,top,left,1.97,1,0,119,119,90,,,,,,,,,,,,,,,,,832.9480879589973,832.9480879589973,0.012547000020276755,left,0.4496909589797724,0.21643518518518517,-0.20601851851851852,0,0,0,833.4226542499964,833.4226542499964,835.4464095419971,835.4464095419971,838.9062069170177,840.8836408340139,837.4296832090185,837.4296832090185,837.4296832090185,838.7546724590065,838.7546724590065,7.447916666666666,1.3179712090059184,space,0.1376056669978425,,,,,,,testtttt,001,2023-03-30_16h27.56.617,SWB_debug,2022.2.4,None,
mix,0.0,-0.8,0.42,top,right,1.95,0,0,120,120,17,,,,,,,,,,,,,,,,,840.8836408340139,840.8836408340139,0.008333499979926273,left,0.6139652499987278,0.21643518518518517,-0.20601851851851852,0,0,0,841.534254875005,841.534254875005,843.5491054590093,843.5491054590093,845.546330000012,847.5015527920041,,,,,,,,,,,,,,,,testtttt,001,2023-03-30_16h27.56.617,SWB_debug,2022.2.4,None,
loss,-0.4,-0.89,0.0,bottom,right,1.47,0,0,121,121,123,,,,,,,,,,,,,,,,,847.5015527920041,847.5015527920041,0.009100291994400322,left,0.47333395801251754,0.21643518518518517,-0.20601851851851852,0,0,0,848.0044649589981,848.0044649589981,850.0166704170115,850.0166704170115,852.004589084012,853.4874383750139,,,,,,,,,,,,,,,,testtttt,001,2023-03-30_16h27.56.617,SWB_debug,2022.2.4,None,
mix,0.0,-1.1,0.73,top,left,1.36,0,0,122,122,25,,,,,,,,,,,,,,,,,853.4874383750139,853.4874383750139,0.01152562498464249,left,0.43694212500122376,0.21643518518518517,-0.20601851851851852,0,0,0,853.9500197500165,853.9500197500165,855.9578824590135,855.9578824590135,859.1244769589975,860.4965630840161,857.9492143749958,857.9492143749958,857.9492143749958,859.0045876670047,859.0045876670047,7.447916666666666,1.03257445798954,space,0.10386083400226198,,,,,,,testtttt,001,2023-03-30_16h27.56.617,SWB_debug,2022.2.4,None,
gain,0.2,0.0,0.34,top,left,1.94,0,0,123,123,50,,,,,,,,,,,,,,,,,860.4965630840161,860.4965630840161,0.01159933302551508,right,1.9253324999881443,0.21643518518518517,-0.20601851851851852,0,0,0,862.4606803749921,862.4606803749921,864.4671188750071,864.4671188750071,866.4629858339904,868.420553584001,,,,,,,,,,,,,,,,testtttt,001,2023-03-30_16h27.56.617,SWB_debug,2022.2.4,None,
mix,0.0,-0.3,0.3,top,left,1.66,0,0,124,124,6,,,,,,,,,,,,,,,,,868.420553584001,868.420553584001,0.011914125003386289,right,0.35858579201158136,0.21643518518518517,-0.20601851851851852,0,0,0,868.816573374992,868.816573374992,870.8225425420096,870.8225425420096,872.8181143339898,874.4844254589989,,,,,,,,,,,,,,,,testtttt,001,2023-03-30_16h27.56.617,SWB_debug,2022.2.4,None,
mix,0.0,-0.5,0.1,bottom,right,1.26,0,0,125,125,7,,,,,,,,,,,,,,,,,874.4844254589989,874.4844254589989,0.008674333017552271,right,0.5340828750049695,0.21643518518518517,-0.20601851851851852,0,0,0,875.0400936249935,875.0400936249935,877.0482412090059,877.0482412090059,881.2295070420078,882.5036408750166,879.0545412920183,879.0545412920183,879.0545412920183,881.1128422500042,881.1128422500042,7.447916666666666,2.0483157499984372,space,0.08393470899318345,,,,,,,testtttt,001,2023-03-30_16h27.56.617,SWB_debug,2022.2.4,None,
gain,0.5,0.0,1.24,top,left,1.19,0,0,126,126,84,,,,,,,,,,,,,,,,,882.5036408750166,882.5036408750166,0.011839374987175688,right,0.8076511250110343,0.21643518518518517,-0.20601851851851852,0,0,0,883.3369276250014,883.3369276250014,885.3505605840182,885.3505605840182,887.3462320420076,888.5547750419937,,,,,,,,,,,,,,,,testtttt,001,2023-03-30_16h27.56.617,SWB_debug,2022.2.4,None,
loss,-0.2,-0.4,0.0,bottom,right,1.52,0,0,127,127,102,,,,,,,,,,,,,,,,,888.5547750419937,888.5547750419937,0.011910791014088318,right,0.5415545830037445,0.21643518518518517,-0.20601851851851852,0,0,0,889.1331863340165,889.1331863340165,891.1395213340002,891.1395213340002,893.1377509589947,894.6796466670057,,,,,,,,,,,,,,,,testtttt,001,2023-03-30_16h27.56.617,SWB_debug,2022.2.4,None,
loss,-0.6,-1.01,0.0,top,left,1.1,0,0,128,128,140,,,,,,,,,,,,,,,,,894.6796466670057,894.6796466670057,0.005007542000385001,right,0.5530570829869248,0.21643518518518517,-0.20601851851851852,0,0,0,895.2593027090188,895.2593027090188,897.2624666670163,897.2624666670163,900.7323521670187,901.8386000420141,899.2710754589934,899.2710754589934,899.2710754589934,900.4211081670073,900.4211081670073,7.447916666666666,1.1414100410183892,space,0.2930959580116905,,,,,,,testtttt,001,2023-03-30_16h27.56.617,SWB_debug,2022.2.4,None,
mix,0.0,-0.5,0.75,top,left,1.68,0,0,129,129,38,,,,,,,,,,,,,,,,,901.8386000420141,901.8386000420141,0.012149709014920518,left,1.5989419170073234,0.21643518518518517,-0.20601851851851852,0,0,0,903.4744147919992,903.4744147919992,905.4826363750035,905.4826363750035,907.4784000840154,909.1658800840087,,,,,,,,,,,,,,,,testtttt,001,2023-03-30_16h27.56.617,SWB_debug,2022.2.4,None,
gain,0.6,0.0,2.16,top,right,1.07,0,0,130,130,97,,,,,,,,,,,,,,,,,909.1658800840087,909.1658800840087,0.008166625018930063,left,0.32427662500413135,0.21643518518518517,-0.20601851851851852,0,0,0,909.5222506670107,909.5222506670107,911.532458917005,911.532458917005,913.5210689590022,914.602863417007,,,,,,,,,,,,,,,,testtttt,001,2023-03-30_16h27.56.617,SWB_debug,2022.2.4,None,
gain,0.3,0.0,0.67,top,left,1.09,0,0,131,131,63,,,,,,,,,,,,,,,,,914.602863417007,914.602863417007,0.010362084023654461,left,0.49836562501150183,0.21643518518518517,-0.20601851851851852,0,0,0,915.1323699170025,915.1323699170025,917.1458547090006,917.1458547090006,920.9157768340083,922.0164353750006,919.131326667004,919.131326667004,919.131326667004,920.6794314589933,920.6794314589933,7.447916666666666,1.5321443330030888,space,0.21292120797443204,,,,,,,testtttt,001,2023-03-30_16h27.56.617,SWB_debug,2022.2.4,None,
gain,0.4,0.0,1.12,top,left,1.42,0,0,132,132,75,,,,,,,,,,,,,,,,,922.0164353750006,922.0164353750006,0.007242916995892301,left,1.251165540976217,0.21643518518518517,-0.20601851851851852,0,0,0,923.2987050419906,923.2987050419906,925.3018485840003,925.3018485840003,927.3043390840176,928.737866209005,,,,,,,,,,,,,,,,testtttt,001,2023-03-30_16h27.56.617,SWB_debug,2022.2.4,None,
gain,0.4,0.0,1.44,bottom,right,1.01,0,0,133,133,77,,,,,,,,,,,,,,,,,928.737866209005,928.737866209005,0.003967791999457404,left,2.4639378339925315,0.21643518518518517,-0.20601851851851852,0,0,0,931.2222734590177,931.2222734590177,933.2276540000166,933.2276540000166,935.237769083993,936.2605067089899,,,,,,,,,,,,,,,,testtttt,001,2023-03-30_16h27.56.617,SWB_debug,2022.2.4,None,
mix,0.0,-0.5,0.41,bottom,right,1.09,1,0,134,134,12,,,,,,,,,,,,,,,,,936.2605067089899,936.2605067089899,0.011869666021084413,left,0.36626866698497906,0.21643518518518517,-0.20601851851851852,0,0,0,936.6609755840036,936.6609755840036,938.6728173340089,938.6728173340089,943.1824356249999,944.274091083993,940.6655961250071,940.6655961250071,940.6655961250071,943.0042834590131,943.0042834590131,7.447916666666666,2.317506457999116,space,0.16609937499742955,,,,,,,testtttt,001,2023-03-30_16h27.56.617,SWB_debug,2022.2.4,None,
mix,0.0,-1.5,1.8,top,right,1.25,0,0,135,135,47,,,,,,,,,,,,,,,,,944.274091083993,944.274091083993,0.007032333000097424,left,0.4297913330083247,0.21643518518518517,-0.20601851851851852,0,0,0,944.7243869590166,944.7243869590166,946.7384919169999,946.7384919169999,948.7377132090041,949.9923076670093,,,,,,,,,,,,,,,,testtttt,001,2023-03-30_16h27.56.617,SWB_debug,2022.2.4,None,
mix,0.0,-0.8,0.53,top,right,1.94,0,0,136,136,18,,,,,,,,,,,,,,,,,949.9923076670093,949.9923076670093,0.006596374994842336,left,2.7610297909996007,0.21643518518518517,-0.20601851851851852,0,0,0,952.7733257919899,952.7733257919899,954.7890360000019,954.7890360000019,956.7877237920184,958.7406919170171,,,,,,,,,,,,,,,,testtttt,001,2023-03-30_16h27.56.617,SWB_debug,2022.2.4,None,
mix,0.0,-0.3,0.16,top,right,1.01,0,0,137,137,3,,,,,,,,,,,,,,,,,958.7406919170171,958.7406919170171,0.0068330840149428695,left,0.5663380829792004,0.21643518518518517,-0.20601851851851852,0,0,0,959.3411075840122,959.3411075840122,961.3396309590025,961.3396309590025,964.7460625840176,965.7592557500175,963.3382428750047,963.3382428750047,963.3382428750047,964.546034125,964.546034125,7.447916666666666,1.1913911669980735,space,0.16300787500222214,,,,,,,testtttt,001,2023-03-30_16h27.56.617,SWB_debug,2022.2.4,None,
gain,0.4,0.0,0.73,bottom,left,1.76,0,0,138,138,71,,,,,,,,,,,,,,,,,965.7592557500175,965.7592557500175,0.009012082999106497,left,0.5614255000255071,0.21643518518518517,-0.20601851851851852,0,0,0,966.3397487089969,966.3397487089969,968.3569988750096,968.3569988750096,970.3459124590154,972.1305706250132,,,,,,,,,,,,,,,,testtttt,001,2023-03-30_16h27.56.617,SWB_debug,2022.2.4,None,
mix,0.0,-1.1,1.65,bottom,left,1.04,0,0,139,139,45,,,,,,,,,,,,,,,,,972.1305706250132,972.1305706250132,0.011872666014824063,left,0.7602040409983601,0.21643518518518517,-0.20601851851851852,0,0,0,972.9185738750093,972.9185738750093,974.9241277500114,974.9241277500114,976.9209206670057,977.9828645840171,,,,,,,,,,,,,,,,testtttt,001,2023-03-30_16h27.56.617,SWB_debug,2022.2.4,None,
gain,0.6,0.0,3.0,top,left,1.95,0,0,140,140,99,,,,,,,,,,,,,,,,,977.9828645840171,977.9828645840171,0.009774082980584353,left,0.4744110419997014,0.21643518518518517,-0.20601851851851852,0,0,0,978.4841095420124,978.4841095420124,980.4867125840101,980.4867125840101,983.748710874992,985.7002815000014,982.4958712090156,982.4958712090156,982.4958712090156,983.6291366670048,983.6291366670048,7.447916666666666,1.1248722499876749,space,0.10509758300031535,,,,,,,testtttt,001,2023-03-30_16h27.56.617,SWB_debug,2022.2.4,None,
gain,0.5,0.0,1.11,bottom,right,1.76,0,0,141,141,83,,,,,,,,,,,,,,,,,985.7002815000014,985.7002815000014,0.006387208006344736,right,0.42632995898020454,0.21643518518518517,-0.20601851851851852,0,0,0,986.1481763749907,986.1481763749907,988.1563070839911,988.1563070839911,990.154005791992,991.929020584008,,,,,,,,,,,,,,,,testtttt,001,2023-03-30_16h27.56.617,SWB_debug,2022.2.4,None,
loss,-0.5,-1.24,0.0,top,left,1.88,0,0,142,142,134,,,,,,,,,,,,,,,,,991.929020584008,991.929020584008,0.011747875018045306,left,0.3380112500162795,0.21643518518518517,-0.20601851851851852,0,0,0,992.3013171670027,992.3013171670027,994.307781334006,994.307781334006,996.3041409589932,998.1933687090059,,,,,,,,,,,,,,,,testtttt,001,2023-03-30_16h27.56.617,SWB_debug,2022.2.4,None,
gain,0.4,0.0,0.8,top,right,1.12,0,0,143,143,72,,,,,,,,,,,,,,,,,998.1933687090059,998.1933687090059,0.010288833000231534,left,0.43135108301066794,0.21643518518518517,-0.20601851851851852,0,0,0,998.6610213340027,998.6610213340027,1000.6614369589952,1000.6614369589952,1004.0458649999928,1005.1736532089999,1002.6635194999981,1002.6635194999981,1002.6635194999981,1003.90404712499,1003.90404712499,7.447916666666666,1.2169977499870583,space,0.12268349999794737,,,,,,,testtttt,001,2023-03-30_16h27.56.617,SWB_debug,2022.2.4,None,
gain,0.4,0.0,0.99,top,left,1.96,0,0,144,144,74,,,,,,,,,,,,,,,,,1005.1736532089999,1005.1736532089999,0.005878875002963468,right,0.3123329999798443,0.21643518518518517,-0.20601851851851852,0,0,0,1005.5080926250084,1005.5080926250084,1007.5199377920071,1007.5199377920071,1009.5208841669955,1011.49514808401,,,,,,,,,,,,,,,,testtttt,001,2023-03-30_16h27.56.617,SWB_debug,2022.2.4,None,
mix,0.0,-0.8,0.66,bottom,left,1.89,1,0,145,145,19,,,,,,,,,,,,,,,,,1011.49514808401,1011.49514808401,0.012073250021785498,left,0.2850853329873644,0.21643518518518517,-0.20601851851851852,0,0,0,1011.8106993749971,1011.8106993749971,1013.8254971670103,1013.8254971670103,1015.8207061249996,1017.7294985420012,,,,,,,,,,,,,,,,testtttt,001,2023-03-30_16h27.56.617,SWB_debug,2022.2.4,None,
loss,-0.2,-0.34,0.0,top,left,2.0,0,0,146,146,100,,,,,,,,,,,,,,,,,1017.7294985420012,1017.7294985420012,0.01182604199857451,right,0.3294582919916138,0.21643518518518517,-0.20601851851851852,0,0,0,1018.0841293749982,1018.0841293749982,1020.0892466669902,1020.0892466669902,1023.1976464170148,1025.2179706250026,1022.0799451250059,1022.0799451250059,1022.0799451250059,1023.0207471670001,1023.0207471670001,7.447916666666666,0.9165528750163503,space,0.150418457982596,,,,,,,testtttt,001,2023-03-30_16h27.56.617,SWB_debug,2022.2.4,None,
loss,-0.2,-0.36,0.0,top,right,1.04,0,0,147,147,101,,,,,,,,,,,,,,,,,1025.2179706250026,1025.2179706250026,0.008052707999013364,left,0.3782664169848431,0.21643518518518517,-0.20601851851851852,0,0,0,1025.6307229170052,1025.6307229170052,1027.6378660839982,1027.6378660839982,1029.6287504170032,1030.6882712919905,,,,,,,,,,,,,,,,testtttt,001,2023-03-30_16h27.56.617,SWB_debug,2022.2.4,None,
mix,0.0,-1.5,0.6,bottom,left,1.98,1,0,148,148,29,,,,,,,,,,,,,,,,,1030.6882712919905,1030.6882712919905,0.01186137498007156,right,0.7862895420112181,0.21643518518518517,-0.20601851851851852,0,0,0,1031.4997597500042,1031.4997597500042,1033.505503249995,1033.505503249995,1035.4953346250113,1037.4808646250167,,,,,,,,,,,,,,,,testtttt,001,2023-03-30_16h27.56.617,SWB_debug,2022.2.4,None,
mix,0.0,-1.1,2.2,bottom,left,1.76,1,0,149,149,46,,,,,,,,,,,,,,,,,1037.4808646250167,1037.4808646250167,0.006276667001657188,left,0.40487645799294114,0.21643518518518517,-0.20601851851851852,0,0,0,1037.9069524590159,1037.9069524590159,1039.9128985000134,1039.9128985000134,1043.5826622500026,1045.354234333994,1041.9206065420003,1041.9206065420003,1041.9206065420003,1043.2877642920066,1043.2877642920066,7.447916666666666,1.3490426249918528,space,0.27062583301449195,,,,,,,testtttt,001,2023-03-30_16h27.56.617,SWB_debug,2022.2.4,None,
,,,,,,,,,,,,,,,,,,,,,,,,,,,,,,,,,,,,,,,,,,,,,,,,,,,,,,,,,1045.354234333994,1050.3541319590004,,,,,,,
