Round	Trial Num	TrialType	TrialOnset	ChoiceOnset	DecisionOnset	Feedback Onset	RT	Safe Bet	Low Bet	High Bet	High Bet Pos	Gamble Pos	Choice Pos	Gamble Choice	Outcome	Profit	TotalProfit	
1	71	gain	338.97432449999997	338.99002340000015	341.7697511000001	343.78561320000017	2.7797276999999667	0.4	0	0.67	bottom	left	left	gamble	good	0.67	10.67	
2	45	mix	348.5290573000002	348.53835579999986	350.7483406000001	352.76446739999983	2.2099848000002567	0	-1.1	1.32	top	left	left	gamble	bad	-1.1	9.57	
3	118	loss	357.4722009000002	357.47292730000026	361.8258503000002	361.83374129999993	4.352922999999919	-0.3	-1.08	0	top	right	left	safe	bad	-0.3	9.27	
4	38	mix	376.28555700000015	376.28628590000017	379.3826696000001	381.3993058000001	3.096383699999933	0	-0.5	0.6	bottom	right	right	gamble	good	0.6	9.87	
5	135	loss	386.0773113	386.08716970000023	390.02711720000025	392.0437053999999	3.9399475000000166	-0.5	-1.24	0	top	left	left	gamble	good	0.0	9.87	
6	100	gain	397.43598770000017	397.4429487000002	399.67183890000024	401.68764790000023	2.2288902000000235	0.6	0	3	top	left	left	gamble	good	3.0	12.87	
7	27	mix	412.71597870000005	412.71673599999986	415.18093839999983	417.19683250000026	2.4642023999999765	0	-1.1	0.9	top	right	right	gamble	good	0.9	13.77	
8	12	mix	422.0190256000001	422.02712299999985	424.75916129999996	424.76662829999987	2.732038300000113	0	-0.5	0.33	bottom	left	right	safe	good	0.0	13.77	
9	99	gain	431.81665740000017	431.8173710000001	434.0703002999999	436.08707790000017	2.252929299999778	0.6	0	2.52	bottom	right	right	gamble	good	2.52	16.29	
10	61	gain	447.16292509999994	447.16994699999987	450.2785090000002	452.2951785	3.1085620000003473	0.3	0	0.5	top	left	left	gamble	bad	0.0	16.29	
11	32	mix	457.22704920000024	457.23481600000014	460.30686289999994	460.3117293	3.0720468999998047	0	-1.5	0.99	top	left	right	safe	bad	0.0	16.29	
12	50	mix	467.211088	467.2146656	469.43552550000004	471.45120080000015	2.2208599000000504	0	-1.5	3	top	left	left	gamble	good	3.0	19.29	
13	125	loss	483.2956515999999	483.3039303999999	486.20942809999997	488.22512210000014	2.905497700000069	-0.4	-0.99	0	top	left	left	gamble	good	0.0	19.29	
14	4	mix	493.06721719999996	493.0679715000001	495.63771369999995	497.6534654000002	2.569742199999837	0	-0.3	0.16	top	right	right	gamble	good	0.16	19.45	
15	14	mix	501.6826587999999	501.6898349000003	503.9837760999999	503.99080219999996	2.293941199999608	0	-0.5	0.5	top	left	right	safe	bad	0.0	19.45	
16	22	mix	514.8771308999999	514.8834415000001	518.3923972000002	518.4001668000001	3.508955700000115	0	-1.1	0.22	top	left	right	safe	good	0.0	19.45	
17	41	mix	525.7343031	525.7408752000001	527.8040430000001	529.8208623999999	2.063167799999974	0	-0.8	0.96	bottom	left	left	gamble	bad	-0.8	18.65	
18	74	gain	535.0201149	535.0208714999999	538.2650446000002	538.2720907000003	3.244173100000353	0.4	0	0.89	bottom	right	left	safe	bad	0.4	19.05	
19	150	loss	549.0105269000001	549.0177455000003	551.9750598	553.9910530000002	2.95731429999978	-0.6	-3	0	top	left	left	gamble	good	0.0	19.05	
20	19	mix	559.3033991000002	559.304185	564.701544	564.7092213000001	5.397359000000051	0	-0.8	0.53	bottom	right	left	safe	good	0.0	19.05	
21	24	mix	572.1925157000001	572.1932428999999	575.1456567999999	575.1514323000001	2.9524139000000105	0	-1.1	0.44	bottom	right	left	safe	bad	0.0	19.05	
22	43	mix	589.4561070999998	589.4568789999998	591.8707288	593.8859198999999	2.4138498000002073	0	-0.8	1.6	top	right	right	gamble	good	1.6	20.65	
23	25	mix	598.1762714000001	598.1845125	600.3994191000002	600.4063857000001	2.2149066000001767	0	-1.1	0.57	top	left	right	safe	bad	0.0	20.65	
24	104	loss	607.5692812000002	607.5700132000002	612.0262536999999	614.0419265	4.456240499999694	-0.2	-0.44	0	top	right	right	gamble	good	0.0	20.65	
25	59	gain	622.5042515999999	622.5050197	624.7527246	626.7695807999999	2.247704899999917	0.2	0	0.84	bottom	right	right	gamble	good	0.84	21.49	
26	20	mix	631.8877143	631.8935454000002	635.9968324000001	636.0037668999998	4.103286999999909	0	-0.8	0.66	top	left	right	safe	good	0.0	21.49	
27	148	loss	643.4207593000001	643.4215321000001	647.8744580000002	647.8833236	4.452925900000082	-0.6	-2.16	0	bottom	right	left	safe	good	-0.6	20.89	
28	84	gain	659.1852454999998	659.1868720000002	661.5165434	663.5323294	2.3296713999998246	0.5	0	1.11	bottom	right	right	gamble	good	1.11	22.0	
29	37	mix	668.8083190000002	668.8144941	671.7284	671.7353928000002	2.913905899999918	0	-0.3	0.6	bottom	left	right	safe	good	0.0	22.0	
30	107	loss	678.3204329999999	678.3287025	682.9726721000002	684.9885552000001	4.643969600000219	-0.2	-0.63	0	top	left	left	gamble	good	0.0	22.0	
31	98	gain	694.5486773000002	694.5494656999999	696.6817891999999	698.6978743	2.132323499999984	0.6	0	2.16	bottom	right	right	gamble	bad	0.0	22.0	
32	6	mix	703.2801405999999	703.2882708000002	709.0586296000001	711.0737632	5.77035879999994	0	-0.3	0.25	bottom	left	left	gamble	bad	-0.3	21.7	
33	42	mix	716.2614260999999	716.2621899000001	718.8867206	720.9022187999999	2.624530699999923	0	-0.8	1.2	top	right	right	gamble	bad	-0.8	20.9	
34	146	loss	730.9796942000003	730.9879406	734.5285076999999	736.5442524	3.540567099999862	-0.6	-1.68	0	bottom	left	left	gamble	good	0.0	20.9	
35	49	mix	741.1504828000002	741.1511937	743.6069428999999	745.6231268000001	2.4557491999999	0	-1.5	2.25	bottom	right	right	gamble	good	2.25	23.15	
36	101	loss	750.6511447000003	750.6576098	755.1835768000001	757.2000023	4.525967000000037	-0.2	-0.34	0	bottom	left	left	gamble	bad	-0.34	22.81	
37	17	mix	767.0777091	767.0784760000001	770.9424961	770.9486916999999	3.864020099999834	0	-0.8	0.32	top	right	left	safe	good	0.0	22.81	
38	85	gain	778.4355417000002	778.4435733	780.5704695	782.5865585000001	2.126896199999919	0.5	0	1.24	top	left	left	gamble	good	1.24	24.05	
39	54	gain	787.2942788999999	787.2951305000001	790.2988835000001	790.3059607	3.0037529999999606	0.2	0	0.44	top	right	left	safe	bad	0.2	24.25	
40	138	loss	800.5610159000003	800.5617923999998	802.8756615000002	802.8827649999998	2.3138691000003746	-0.5	-1.8	0	bottom	right	left	safe	bad	-0.5	23.75	
41	81	gain	810.4010241000001	810.4061037000001	812.3207483000001	814.3359410000003	1.9146445999999742	0.5	0	0.84	bottom	left	left	gamble	bad	0.0	23.75	
42	67	gain	819.8289165000001	819.8296811	821.9656043	823.9810001000001	2.1359231999999793	0.3	0	0.95	top	right	right	gamble	bad	0.0	23.75	
43	129	loss	833.0271616	833.0278914999999	838.0406311000002	838.0484197000001	5.012739600000259	-0.4	-1.68	0	top	right	left	safe	bad	-0.4	23.35	
44	30	mix	844.7150366999999	844.7229637999999	848.2349739000001	848.2419497000001	3.512010100000225	0	-1.5	0.6	top	left	right	safe	good	0.0	23.35	
45	75	gain	855.7484623	855.7553112999999	858.2462980999999	860.2627455000002	2.4909867999999733	0.4	0	0.99	top	left	left	gamble	good	0.99	24.34	
46	83	gain	869.7910282000003	869.7917898000001	872.9386644000001	872.9463681000002	3.1468746000000465	0.5	0	1	bottom	right	left	safe	bad	0.5	24.84	
47	127	loss	880.4818064000001	880.4825329	884.4159487000002	884.4238579000003	3.933415800000148	-0.4	-1.26	0	top	right	left	safe	bad	-0.4	24.44	
48	5	mix	891.0220686000002	891.0293040000001	894.3269841000001	894.3331164000001	3.2976800999999796	0	-0.3	0.2	top	left	right	safe	good	0.0	24.44	
49	114	loss	905.5536424000002	905.5614031999999	908.5193462000002	910.5349722999999	2.9579430000003413	-0.3	-0.67	0	top	left	left	gamble	good	0.0	24.44	
50	63	gain	915.3176478	915.3184595000002	917.8642505000003	919.8812343	2.5457910000000084	0.3	0	0.6	bottom	right	right	gamble	good	0.6	25.04	
51	108	loss	925.1175978000001	925.1183657000001	927.7097285999998	927.7167758999999	2.5913628999996945	-0.2	-0.72	0	bottom	right	left	safe	bad	-0.2	24.84	
52	143	loss	938.8030039999999	938.8038412999999	942.4853057	944.5012431999999	3.6814644000000953	-0.6	-1.2	0	top	right	right	gamble	good	0.0	24.84	
53	73	gain	949.4926048000002	949.4933605000001	953.5620738000002	955.578771	4.068713300000127	0.4	0	0.8	bottom	right	right	gamble	bad	0.0	24.84	
54	82	gain	960.2127792000001	960.2201115000003	962.6077539000003	964.6241903999999	2.3876424000000043	0.5	0	0.91	top	left	left	gamble	good	0.91	25.75	
55	40	mix	974.2676124	974.2684138	977.8164526999999	977.8240853000002	3.5480388999999377	0	-0.5	1	top	right	left	safe	good	0.0	25.75	
56	23	mix	985.3378373999999	985.3386194	988.9603837	988.9673892000001	3.6217642999999953	0	-1.1	0.33	bottom	right	left	safe	good	0.0	25.75	
57	133	loss	995.5331055000001	995.5340795000002	999.6382612000002	1001.6543815	4.1041817000000265	-0.5	-1	0	bottom	right	right	gamble	good	0.0	25.75	
58	68	gain	1010.0501069000002	1010.0508684000001	1012.5480333	1014.5637718000003	2.497164899999916	0.3	0	1.08	top	right	right	gamble	good	1.08	26.83	
59	142	loss	1018.6122123	1018.6129693000003	1022.8421017999999	1024.8586956	4.2291324999996505	-0.6	-1.09	0	top	right	right	gamble	bad	-1.09	25.74	
60	65	gain	1030.3071462000003	1030.3079019000002	1032.3204193000001	1034.33659	2.012517399999979	0.3	0	0.74	top	right	right	gamble	bad	0.0	25.74	
61	93	gain	1043.7644636	1043.7652825999999	1045.9303378	1047.9467702000002	2.165055200000097	0.6	0	1.2	top	right	right	gamble	good	1.2	26.94	
62	139	loss	1052.8238910999999	1052.8323460000001	1056.6408889	1056.6479841999999	3.808542899999793	-0.5	-2.1	0	top	left	right	safe	bad	-0.5	26.44	
63	140	loss	1063.8141041	1063.8148612999998	1067.5346684	1067.5395606000002	3.719807100000253	-0.5	-2.5	0	top	right	left	safe	good	-0.5	25.94	
64	110	loss	1078.0465079	1078.0526	1084.0430612	1086.0589020000002	5.990461200000027	-0.2	-1	0	top	left	left	gamble	good	0.0	25.94	
65	80	gain	1091.2409515	1091.2561858	1093.9882085	1096.0035354000001	2.732022700000016	0.4	0	2	top	left	left	gamble	bad	0.0	25.94	
66	72	gain	1101.186295	1101.1902488	1104.4655822	1104.4730379000002	3.2753333999999086	0.4	0	0.73	top	left	right	safe	good	0.4	26.34	
67	28	mix	1115.6772941	1115.6780709	1119.9073418000003	1119.9151365000002	4.2292709000003015	0	-1.5	0.3	top	right	left	safe	good	0.0	26.34	
68	78	gain	1126.6045645	1126.605298	1128.7859852000001	1130.8023160000002	2.180687200000193	0.4	0	1.44	top	right	right	gamble	bad	0.0	26.34	
69	18	mix	1135.3181490000002	1135.3189005	1137.9316257	1137.9387063	2.6127252000001135	0	-0.8	0.42	top	right	left	safe	bad	0.0	26.34	
70	62	gain	1149.3431016	1149.3500309	1151.3745139000002	1153.3897876	2.0244830000001457	0.3	0	0.55	bottom	left	left	gamble	bad	0.0	26.34	
71	123	loss	1158.7951698000002	1158.7959022999999	1162.8179877000002	1164.8346430000001	4.022085400000378	-0.4	-0.8	0	bottom	right	right	gamble	bad	-0.8	25.54	
72	149	loss	1169.7427129000002	1169.7434379000001	1172.3962576	1172.4007824999999	2.6528196999997817	-0.6	-2.52	0	bottom	right	left	safe	bad	-0.6	24.94	
73	119	loss	1183.6082907	1183.6090193999999	1189.0047628000002	1189.0127830000001	5.395743400000356	-0.3	-1.26	0	bottom	right	left	safe	good	-0.3	24.64	
74	124	loss	1196.2418836000002	1196.242612	1198.4990902	1198.5061924000001	2.256478199999947	-0.4	-0.89	0	bottom	right	left	safe	bad	-0.4	24.24	
75	44	mix	1205.5133959999998	1205.5141176000002	1208.9608306999999	1210.9767554	3.44671309999967	0	-1.1	1.1	bottom	right	right	gamble	bad	-1.1	23.14	
76	89	gain	1220.3206495	1227.8358592	1229.8164145	1231.8321199000002	1.9805553000001055	0.5	0	2.1	top	left	left	gamble	good	2.1	25.24	
77	96	gain	1237.0388444999999	1237.0466688000001	1239.1113673999998	1241.127916	2.0646985999997014	0.6	0	1.68	bottom	left	left	gamble	good	1.68	26.92	
78	35	mix	1246.5958401000003	1246.6033828	1249.2222338000001	1249.2292944	2.618851000000177	0	-0.3	0.36	top	left	right	safe	bad	0.0	26.92	
79	105	loss	1259.9675739	1259.9748591000002	1262.8321624	1264.8486145000002	2.857303299999785	-0.2	-0.5	0	top	left	left	gamble	bad	-0.5	26.42	
80	29	mix	1269.5951142	1269.5963885	1272.5438318000001	1272.5516465	2.9474433000000317	0	-1.5	0.45	top	right	left	safe	bad	0.0	26.42	
81	8	mix	1279.9631564000001	1279.9638838	1282.8544473000002	1282.8614338000002	2.8905635000000984	0	-0.5	0.1	bottom	right	left	safe	bad	0.0	26.42	
82	56	gain	1293.4484025000002	1293.4552138	1296.3811351	1298.3974669	2.9259213000000273	0.2	0	0.56	bottom	left	left	gamble	bad	0.0	26.42	
83	130	loss	1303.8300755	1303.835559	1309.6237806999998	1311.6394363	5.788221699999667	-0.4	-2	0	top	left	left	gamble	bad	-2.0	24.42	
84	147	loss	1317.0759647000004	1317.0831644999998	1320.8177607999996	1322.8343531	3.7345962999997937	-0.6	-1.9	0	top	left	left	gamble	bad	-1.9	22.52	
85	117	loss	1331.4624423000005	1331.4632554999998	1335.3438452999999	1337.3591078999998	3.8805898000000525	-0.3	-0.95	0	top	right	right	gamble	bad	-0.95	21.57	
86	9	mix	1341.8992868000005	1341.9001154999996	1345.0715775999997	1347.0884760999998	3.171462100000099	0	-0.5	0.15	bottom	right	right	gamble	good	0.15	21.72	
87	46	mix	1351.6047472999999	1351.6136812000004	1355.6326734000004	1355.6413187999997	4.018992199999957	0	-1.1	1.65	bottom	left	right	safe	bad	0.0	21.72	
88	60	gain	1366.1932503999997	1366.2000411	1368.6428726000004	1370.6592891999999	2.442831500000466	0.2	0	1	top	left	left	gamble	good	1.0	22.72	
89	79	gain	1375.7144277999996	1375.7151439999998	1378.2711457000005	1380.2872638999997	2.5560017000007065	0.4	0	1.68	top	right	right	gamble	good	1.68	24.4	
90	87	gain	1384.8362227999996	1384.8439611000003	1389.9318059999996	1391.9480811000003	5.087844899999254	0.5	0	1.58	bottom	left	left	gamble	bad	0.0	24.4	
91	132	loss	1400.8264962000003	1400.8330711999997	1404.3406544999998	1406.3565433000003	3.5075833000000785	-0.5	-0.91	0	top	left	left	gamble	good	0.0	24.4	
92	15	mix	1410.8678848999998	1410.8686423999998	1413.3020680999998	1413.3091559000004	2.4334257000000434	0	-0.8	0.16	top	right	left	safe	good	0.0	24.4	
93	26	mix	1420.6339440000002	1420.6421572999998	1423.5138852999999	1423.5209452999998	2.8717280000000756	0	-1.1	0.73	bottom	left	right	safe	good	0.0	24.4	
94	97	gain	1434.4072164999998	1434.4148000000005	1437.673119	1439.6882618	3.258318999999574	0.6	0	1.9	top	left	left	gamble	bad	0.0	24.4	
95	95	gain	1444.7031558999997	1444.7077884	1447.0347744	1449.0500460000003	2.3269860000000335	0.6	0	1.49	top	left	left	gamble	bad	0.0	24.4	
96	106	loss	1454.4152694000004	1454.4216365000002	1458.6282170000004	1458.6360303000001	4.2065805000002	-0.2	-0.56	0	bottom	left	right	safe	good	-0.2	24.2	
97	51	gain	1471.5382701999997	1471.5459677	1475.0026841999997	1477.0186765999997	3.4567164999998568	0.2	0	0.34	bottom	left	left	gamble	bad	0.0	24.2	
98	134	loss	1482.4647350000005	1482.4654891	1485.0147130000005	1485.0217617999997	2.54922390000047	-0.5	-1.11	0	bottom	right	left	safe	bad	-0.5	23.7	
99	58	gain	1491.6683442000003	1491.6690649000002	1495.991661	1495.9993635	4.322596099999828	0.2	0	0.72	bottom	right	left	safe	bad	0.2	23.9	
100	109	loss	1506.8701410000003	1506.8708668999998	1509.0019291999997	1511.0179563000002	2.1310622999999396	-0.2	-0.84	0	bottom	right	right	gamble	good	0.0	23.9	
101	121	loss	1516.2189617000004	1516.2272756000002	1519.0961055999996	1521.1130292999997	2.868829999999434	-0.4	-0.67	0	bottom	left	left	gamble	good	0.0	23.9	
102	48	mix	1525.7460965	1525.7468200000003	1528.2084184000005	1528.2161478999997	2.4615984000001845	0	-1.5	1.8	bottom	right	left	safe	good	0.0	23.9	
103	122	loss	1538.9030807999998	1538.9084780000003	1541.7348428000005	1543.7507527999996	2.826364800000192	-0.4	-0.73	0	top	left	left	gamble	bad	-0.73	23.17	
104	10	mix	1548.7094800000004	1548.7166144000003	1552.6123473999996	1554.6275174000002	3.8957329999993817	0	-0.5	0.2	top	left	left	gamble	good	0.2	23.37	
105	111	loss	1559.5350420000004	1559.5398565000005	1562.0404414000004	1564.0566415000003	2.5005848999999216	-0.3	-0.5	0	top	left	left	gamble	bad	-0.5	22.87	
106	90	gain	1573.1019328000002	1573.1027406000003	1576.8832390999996	1578.8979608	3.7804984999993394	0.5	0	2.5	top	right	right	gamble	bad	0.0	22.87	
107	47	mix	1584.0906679999998	1584.0989225000003	1587.5097990000004	1589.5267875999998	3.410876500000086	0	-1.1	2.2	top	left	left	gamble	bad	-1.1	21.77	
108	92	gain	1594.802976	1594.8037783999998	1597.1216574	1599.1372301000001	2.3178790000001754	0.6	0	1.09	top	right	right	gamble	bad	0.0	21.77	
109	77	gain	1607.8504614000003	1607.8512005000002	1609.8980417000002	1611.9149871	2.046841200000017	0.4	0	1.26	top	right	right	gamble	good	1.26	23.03	
110	2	mix	1616.0020776000001	1616.0028652	1619.9591557000003	1619.9636437999998	3.95629050000025	0	-0.3	0.09	top	right	left	safe	bad	0.0	23.03	
111	141	loss	1626.7316921000001	1626.7394867000003	1629.7380597000001	1631.7533763000001	2.998572999999851	-0.6	-1.01	0	bottom	left	left	gamble	bad	-1.01	22.02	
112	55	gain	1640.0491319000002	1640.054532	1643.5137025000004	1645.5304580000002	3.459170500000255	0.2	0	0.5	top	left	left	gamble	bad	0.0	22.02	
113	64	gain	1650.2314192000003	1650.2380263000005	1652.7920596000004	1654.8086695000002	2.554033299999901	0.3	0	0.67	top	left	left	gamble	good	0.67	22.69	
114	70	gain	1659.4170710999997	1659.4207905000003	1661.1547434000004	1663.1702206	1.7339529000000766	0.3	0	1.5	top	left	left	gamble	bad	0.0	22.69	
115	69	gain	1671.1984337000004	1671.1992375	1673.7976156000004	1675.8142267000003	2.5983781000004456	0.3	0	1.26	bottom	right	right	gamble	bad	0.0	22.69	
116	91	gain	1680.9660962999997	1680.9745353999997	1684.5591765999998	1684.5668830000004	3.5846412000000782	0.6	0	1.01	bottom	left	right	safe	good	0.6	23.29	
117	115	loss	1692.0889016	1692.0896616	1696.7694333	1698.7853170999997	4.679771699999947	-0.3	-0.74	0	top	right	right	gamble	bad	-0.74	22.55	
118	86	gain	1707.5643132000005	1707.5715245000001	1709.8789416	1711.8942924000003	2.3074170999998387	0.5	0	1.4	top	left	left	gamble	bad	0.0	22.55	
119	103	loss	1717.1607886000002	1717.1615560999999	1723.2220447999998	1725.2383572999997	6.060488699999951	-0.2	-0.4	0	top	right	right	gamble	bad	-0.4	22.15	
120	33	mix	1730.2742335000003	1730.2749560000002	1733.0329256000005	1733.0376444000003	2.7579696000002514	0	-1.5	1.23	bottom	right	left	safe	bad	0.0	22.15	
121	113	loss	1743.5449872999998	1743.5457088000003	1747.4251793000003	1749.4414226999997	3.879470500000025	-0.3	-0.6	0	bottom	right	right	gamble	good	0.0	22.15	
122	112	loss	1753.9745079000004	1753.9805084999998	1756.5042722999997	1758.5196305	2.5237637999998697	-0.3	-0.55	0	bottom	left	left	gamble	bad	-0.55	21.6	
123	66	gain	1763.8357667	1763.8427763999998	1768.8307204000002	1770.8475614999998	4.987944000000425	0.3	0	0.84	bottom	left	left	gamble	bad	0.0	21.6	
124	11	mix	1779.9746482	1779.9832843000004	1782.440708	1782.4492920000002	2.4574236999997083	0	-0.5	0.26	top	left	right	safe	good	0.0	21.6	
125	7	mix	1789.3168244999997	1789.3235574	1791.7518019	1791.7588213	2.4282444999998916	0	-0.3	0.3	top	left	right	safe	bad	0.0	21.6	
126	21	mix	1798.9430181999996	1798.9491023	1803.8459916000002	1803.8538096000002	4.896889300000112	0	-0.8	0.8	bottom	left	right	safe	bad	0.0	21.6	
127	1	mix	1814.973438	1814.9795272000001	1817.3216671	1817.3287634999997	2.342139899999893	0	-0.3	0.06	bottom	left	right	safe	good	0.0	21.6	
128	136	loss	1824.0024131	1824.0108167999997	1826.8670358999998	1828.8832005000004	2.8562191000000894	-0.5	-1.4	0	top	left	left	gamble	bad	-1.4	20.2	
129	39	mix	1833.7100185999998	1833.7176867999997	1838.2439911000001	1840.2608152000003	4.526304300000447	0	-0.5	0.75	top	left	left	gamble	good	0.75	20.95	
130	120	loss	1849.0890995999998	1849.0970807000003	1852.4027735	1854.4186009000005	3.3056927999996333	-0.3	-1.5	0	top	left	left	gamble	bad	-1.5	19.45	
131	52	gain	1859.3051806000003	1859.3060038000003	1864.0134024999998	1866.0298739	4.70739869999943	0.2	0	0.36	top	right	right	gamble	good	0.36	19.81	
132	94	gain	1870.3393218	1870.3401167000002	1872.4424461999997	1874.4591664999998	2.1023294999995414	0.6	0	1.33	bottom	right	right	gamble	bad	0.0	19.81	
133	145	loss	1883.7701752000003	1883.7777465999998	1887.4177344999998	1889.4336187	3.639987900000051	-0.6	-1.49	0	top	left	left	gamble	bad	-1.49	18.32	
134	34	mix	1894.5115526999998	1894.5123569999996	1897.6287393000002	1899.6461227999998	3.116382300000623	0	-1.5	1.5	bottom	right	right	gamble	good	1.5	19.82	
135	3	mix	1904.8827121000004	1904.8835210999996	1907.2739601000003	1907.2786447999997	2.390439000000697	0	-0.3	0.12	top	right	left	safe	good	0.0	19.82	
136	31	mix	1917.6021026999997	1917.6108519	1920.3835943000004	1920.3882758999998	2.772742400000425	0	-1.5	0.78	bottom	left	right	safe	good	0.0	19.82	
137	126	loss	1927.1361512000003	1927.1463703999998	1930.8613704999998	1932.8779408999999	3.7150000999999975	-0.4	-1.12	0	bottom	left	left	gamble	bad	-1.12	18.7	
138	76	gain	1938.1680646000004	1938.1768591	1941.0892962999997	1943.1054210000002	2.9124371999996583	0.4	0	1.12	bottom	left	left	gamble	bad	0.0	18.7	
139	36	mix	1951.9837360000001	1951.9925900999997	1954.4822698999997	1954.4866909000002	2.4896797999999762	0	-0.3	0.45	top	left	right	safe	good	0.0	18.7	
140	16	mix	1961.4132597999997	1961.4198744000005	1963.5440575000002	1963.5482982000003	2.1241830999997546	0	-0.8	0.24	bottom	left	right	safe	good	0.0	18.7	
141	137	loss	1970.5866191000005	1970.5960178000005	1973.4555812999997	1975.4725428000002	2.85956349999924	-0.5	-1.58	0	bottom	left	left	gamble	bad	-1.58	17.12	
142	13	mix	1986.4833902	1986.4841145999999	1990.2134070000002	1990.2213843999998	3.729292400000304	0	-0.5	0.41	bottom	right	left	safe	bad	0.0	17.12	
143	53	gain	1996.8368326999998	1996.837598	2000.0596716999999	2000.0646115	3.2220736999997825	0.2	0	0.4	top	right	left	safe	good	0.2	17.32	
144	131	loss	2006.8752685999998	2006.8789462000004	2009.5537486000003	2011.5698793000001	2.6748023999998622	-0.5	-0.84	0	bottom	left	left	gamble	bad	-0.84	16.48	
145	57	gain	2024.3119588999998	2024.3179983	2027.2444671000003	2029.2605167000002	2.9264688000002934	0.2	0	0.63	top	left	left	gamble	good	0.63	17.11	
146	88	gain	2034.2277285999999	2034.2284514000003	2036.5726468000003	2038.5880181000002	2.3441953999999896	0.5	0	1.8	bottom	right	right	gamble	good	1.8	18.91	
147	116	loss	2043.9268062	2043.9325724	2047.849714	2049.8654162000003	3.9171415999999226	-0.3	-0.84	0	bottom	left	left	gamble	bad	-0.84	18.07	
148	144	loss	2059.3115374	2059.3122958000004	2062.0926621	2064.1087563	2.780366299999514	-0.6	-1.33	0	bottom	right	right	gamble	bad	-1.33	16.74	
149	128	loss	2069.3157966	2069.3165492	2073.7198466	2075.7361678999996	4.403297400000156	-0.4	-1.44	0	top	right	right	gamble	bad	-1.44	15.3	
150	102	loss	2081.2225958999998	2081.2233269999997	2083.5636351000003	2085.5805222	2.340308100000584	-0.2	-0.36	0	top	right	right	gamble	good	0.0	15.3	

Start Time: 15:26:01
End Time: 16:00:55