Round	Trial Num	TrialType	TrialOnset	ChoiceOnset	DecisionOnset	Feedback Onset	RT	Safe Bet	Low Bet	High Bet	High Bet Pos	Gamble Pos	Choice Pos	Gamble Choice	Outcome	Profit	TotalProfit	
1	92	gain	430.60492540000996	430.6076233000058	434.0532133000088	436.07012470001064	3.445590000002994	0.6	0	1.09	top	right	right	gamble	bad	0.0	10.0	
2	113	loss	441.01452060000156	441.01549210000667	445.88084890000755	447.89661470000283	4.865356800000882	-0.3	-0.6	0	bottom	right	right	gamble	good	0.0	10.0	
3	87	gain	452.4290156000061	452.43943100000615	455.57569440000225	457.591840100009	3.1362633999960963	0.5	0	1.58	bottom	left	left	gamble	bad	0.0	10.0	
4	77	gain	472.9666816000099	472.9676576000056	477.86390300000494	477.8715458000079	4.896245399999316	0.4	0	1.26	top	right	left	safe	bad	0.4	10.4	
5	68	gain	484.4955040000059	484.49625900000683	487.7253106999997	489.7413593000092	3.2290516999928514	0.3	0	1.08	top	right	right	gamble	good	1.08	11.48	
6	1	mix	493.79257320000033	493.7996802999987	500.05215099999623	502.0673526000028	6.252470699997502	0	-0.3	0.06	bottom	left	left	gamble	bad	-0.3	11.18	
7	37	mix	510.84668370000145	510.84979930000554	514.6439012000046	516.6606546999974	3.7941018999990774	0	-0.3	0.6	bottom	left	left	gamble	bad	-0.3	10.88	
8	43	mix	521.2304009000072	521.2311524999968	525.188682100008	527.2039839000063	3.957529600011185	0	-0.8	1.6	top	right	right	gamble	good	1.6	12.48	
9	86	gain	531.4929682000075	531.5002139999997	534.600371499997	536.6167451000074	3.1001574999972945	0.5	0	1.4	top	left	left	gamble	bad	0.0	12.48	
10	27	mix	545.8441067000094	545.8448567000014	553.3403783000103	553.3480832000059	7.495521600008942	0	-1.1	0.9	top	right	left	safe	bad	0.0	12.48	
11	145	loss	560.6905121000018	560.7008320000023	566.5501118999964	568.5661372000031	5.849279899994144	-0.6	-1.49	0	top	left	left	gamble	bad	-1.49	10.99	
12	66	gain	573.6428588999988	573.6489345000009	578.0439619000099	578.0513975000067	4.395027400008985	0.3	0	0.84	bottom	left	right	safe	good	0.3	11.29	
13	47	mix	594.4521026000002	594.4598917999974	598.1827679999988	600.1989993000025	3.7228762000013376	0	-1.1	2.2	top	left	left	gamble	bad	-1.1	10.19	
14	40	mix	605.473848499998	605.4746078000026	609.5116196000017	611.5263355000061	4.0370117999991635	0	-0.5	1	top	right	right	gamble	bad	-0.5	9.69	
15	34	mix	617.0144741999975	617.015330299997	620.1710357999982	622.1869739999966	3.155705500001204	0	-1.5	1.5	bottom	right	right	gamble	good	1.5	11.19	
16	62	gain	633.8809038000036	633.8877987000014	637.8621999000025	639.8776811999996	3.9744012000010116	0.3	0	0.55	bottom	left	left	gamble	bad	0.0	11.19	
17	73	gain	645.2901678000053	645.2909848999989	648.872956200008	648.8798690999974	3.5819713000091724	0.4	0	0.8	bottom	right	left	safe	good	0.4	11.59	
18	33	mix	655.5579011000082	655.559462899997	658.2347503000055	660.2508592000086	2.6752874000085285	0	-1.5	1.23	bottom	right	right	gamble	good	1.23	12.82	
19	59	gain	673.5768280000048	673.5775741999969	677.3912098000001	677.3981525999989	3.813635600003181	0.2	0	0.84	bottom	right	left	safe	bad	0.2	13.02	
20	80	gain	684.5474830000021	684.5544479000091	687.5519107	689.5684578000073	2.997462799990899	0.4	0	2	top	left	left	gamble	bad	0.0	13.02	
21	134	loss	694.742708500009	694.7434940000094	699.5628251000016	701.5780302000057	4.819331099992269	-0.5	-1.11	0	bottom	right	right	gamble	good	0.0	13.02	
22	5	mix	711.9719868000102	711.9791488000046	717.386287500005	719.4026238000079	5.40713870000036	0	-0.3	0.2	top	left	left	gamble	bad	-0.3	12.72	
23	64	gain	724.8680606999988	724.8752206000063	728.6635158999998	730.6800408999989	3.7882952999934787	0.3	0	0.67	top	left	left	gamble	good	0.67	13.39	
24	146	loss	735.2900702000043	735.3018623000098	738.9754668000096	738.9836122999986	3.673604499999783	-0.6	-1.68	0	bottom	left	right	safe	bad	-0.6	12.79	
25	52	gain	753.4009288000088	753.4016847000021	757.0152069000032	757.0228630000056	3.613522200001171	0.2	0	0.36	top	right	left	safe	bad	0.2	12.99	
26	139	loss	763.8508331000048	763.8587949000066	768.275721900005	768.2802593000088	4.416926999998395	-0.5	-2.1	0	top	left	right	safe	bad	-0.5	12.49	
27	9	mix	775.4433191999997	775.4440704000008	779.137169900001	779.1447329000075	3.693099500000244	0	-0.5	0.15	bottom	right	left	safe	bad	0.0	12.49	
28	81	gain	791.0149740000052	791.0206509999989	795.3452198000014	797.3617296000011	4.324568800002453	0.5	0	0.84	bottom	left	left	gamble	bad	0.0	12.49	
29	90	gain	802.8537051000021	802.8544298000052	805.3233667000022	807.338585000005	2.468936899997061	0.5	0	2.5	top	right	right	gamble	bad	0.0	12.49	
30	123	loss	812.5311038000073	812.5318178000016	818.0666148000018	818.0742690000043	5.534797000000253	-0.4	-0.8	0	bottom	right	left	safe	good	-0.4	12.09	
31	79	gain	830.9087921000028	830.9095480999968	834.4412420000008	836.4565116000012	3.5316939000040293	0.4	0	1.68	top	right	right	gamble	good	1.68	13.77	
32	56	gain	841.0052278000076	841.0125625000073	844.5020146000024	844.509008699999	3.4894520999951055	0.2	0	0.56	bottom	left	right	safe	good	0.2	13.97	
33	41	mix	851.9757477000094	851.9838355000102	859.9615663000004	0	0	0	-0.8	0.96	bottom	left	right	safe	NaN	0	13.97	
34	2	mix	1194.3510119999992	1194.35175300001	1198.3981741000025	1200.4137375999999	4.046421099992585	0	-0.3	0.09	top	right	right	gamble	good	0.09	14.06	
35	93	gain	1204.6710826000053	1204.6718058999977	1207.076791600004	1207.0838710000098	2.404985700006364	0.6	0	1.2	top	right	left	safe	bad	0.6	14.66	
36	124	loss	1214.4913709999964	1214.4920841999992	1219.3037203999993	1219.3115226000082	4.811636200000066	-0.4	-0.89	0	bottom	right	left	safe	bad	-0.4	14.26	
37	24	mix	1232.2960433999979	1232.296881400005	1235.5117587999994	1237.5285468000075	3.2148773999942932	0	-1.1	0.44	bottom	right	right	gamble	good	0.44	14.7	
38	147	loss	1242.2349549000064	1242.2430522000068	1247.7047087999963	1247.709806400002	5.46165659998951	-0.6	-1.9	0	top	left	right	safe	good	-0.6	14.1	
39	6	mix	1254.6369673000008	1254.6443751000043	1258.2994987999991	1260.3162350000057	3.655123699994874	0	-0.3	0.25	bottom	left	left	gamble	bad	-0.3	13.8	
40	89	gain	1273.4084116000013	1273.415678999998	1277.6563317999971	1279.6718677000026	4.240652799999225	0.5	0	2.1	top	left	left	gamble	good	2.1	15.9	
41	150	loss	1284.8801285000081	1284.8873705000005	1290.3660249000095	1292.3811409000045	5.478654400008963	-0.6	-3	0	top	left	left	gamble	good	0.0	15.9	
42	85	gain	1297.6935819000064	1297.7055347999994	1300.893125100003	1302.9096804	3.1875903000036487	0.5	0	1.24	top	left	left	gamble	good	1.24	17.14	
43	117	loss	1317.085848600007	1317.0867511000106	1322.2988207000017	1322.3060051000066	5.212069599991082	-0.3	-0.95	0	top	right	left	safe	good	-0.3	16.84	
44	127	loss	1328.8740363999968	1328.8748338000005	1333.8594806000037	1335.8756273000035	4.984646800003247	-0.4	-1.26	0	top	right	right	gamble	good	0.0	16.84	
45	94	gain	1339.9387947000068	1339.9395847999986	1344.2699463000026	1346.2869315999997	4.330361500004074	0.6	0	1.33	bottom	right	right	gamble	bad	0.0	16.84	
46	130	loss	1360.7453852000035	1360.752971599999	1367.2912645000033	1367.2989840000082	6.538292900004308	-0.4	-2	0	top	left	right	safe	good	-0.4	16.44	
47	38	mix	1374.767829400007	1374.7685497000057	1379.7520643000025	1379.7595240000082	4.983514599996852	0	-0.5	0.6	bottom	right	left	safe	bad	0.0	16.44	
48	108	loss	1386.4656836000067	1386.4664244000014	1393.1939050000074	1393.1972202000034	6.727480600005947	-0.2	-0.72	0	bottom	right	left	safe	bad	-0.2	16.24	
49	74	gain	1406.4203146000073	1406.42106410001	1414.183043500001	1414.1907168000034	7.761979399991105	0.4	0	0.89	bottom	right	left	safe	bad	0.4	16.64	
50	110	loss	1420.7658366999967	1420.7711589999963	1425.9105979000014	1427.9257641000004	5.139438900005189	-0.2	-1	0	top	left	left	gamble	good	0.0	16.64	
51	72	gain	1433.1086270000087	1433.115900600009	1438.4207291000057	1440.437006200009	5.304828499996802	0.4	0	0.73	top	left	left	gamble	bad	0.0	16.64	
52	129	loss	1452.0470674000098	1452.0478529999964	1457.2267557000014	1457.2315329999983	5.178902700004983	-0.4	-1.68	0	top	right	left	safe	bad	-0.4	16.24	
53	83	gain	1463.877708400003	1463.878441000008	1468.6707110999996	1468.677586100006	4.792270099991583	0.5	0	1	bottom	right	left	safe	bad	0.5	16.74	
54	105	loss	1476.2036078000092	1476.2110761000076	1482.4806001999968	1484.4964207000012	6.269524099989212	-0.2	-0.5	0	top	left	left	gamble	bad	-0.5	16.24	
55	12	mix	1498.0723703999975	1498.0810770000098	1504.3680694000068	1506.3850303000072	6.2869923999969615	0	-0.5	0.33	bottom	left	left	gamble	bad	-0.5	15.74	
56	14	mix	1511.40424660001	1511.4096396000095	1516.3792403999978	1518.3946001000004	4.969600799988257	0	-0.5	0.5	top	left	left	gamble	good	0.5	16.24	
57	131	loss	1522.991263200005	1522.9989166000014	1528.6727045000007	1530.688198600008	5.673787899999297	-0.5	-0.84	0	bottom	left	left	gamble	bad	-0.84	15.4	
58	126	loss	1539.6333813000092	1539.640214900006	1546.7132589999965	1548.7296407000103	7.073044099990511	-0.4	-1.12	0	bottom	left	left	gamble	bad	-1.12	14.28	
59	84	gain	1554.0179572000052	1554.0187033999973	1559.3059412000002	1561.3217328000028	5.287237800002913	0.5	0	1.11	bottom	right	right	gamble	good	1.11	15.39	
60	107	loss	1566.5988882000092	1566.607356499997	1573.598934499998	1575.6158345000003	6.991578000001027	-0.2	-0.63	0	top	left	left	gamble	good	0.0	15.39	
61	3	mix	1587.4756280000001	1587.4763498999964	1595.4544153000024	0	0	0	-0.3	0.12	top	right	NaN	NaN	Nan	0	15.39	
62	42	mix	1598.0725041999976	1598.0732632	1601.1166536000092	1603.1339574000012	3.04339040000923	0	-0.8	1.2	top	right	right	gamble	bad	-0.8	14.59	
63	121	loss	1608.3414044000092	1608.3492935999966	1613.860945499997	1615.8773602	5.511651900000288	-0.4	-0.67	0	bottom	left	left	gamble	good	0.0	14.59	
64	141	loss	1626.5549233000056	1626.5614766000072	1631.667698899997	1631.6733737000031	5.106222299989895	-0.6	-1.01	0	bottom	left	right	safe	good	-0.6	13.99	
65	11	mix	1638.3175043000083	1638.3252913000033	1644.0109656999994	1646.0279733000061	5.68567439999606	0	-0.5	0.26	top	left	left	gamble	bad	-0.5	13.49	
66	95	gain	1650.8853696000006	1650.893581299999	1653.7396414000104	1655.7557898000086	2.8460601000115275	0.6	0	1.49	top	left	left	gamble	bad	0.0	13.49	
67	58	gain	1668.0828322000016	1668.0836276000045	1674.5448418000014	1676.5616146999964	6.461214199996903	0.2	0	0.72	bottom	right	right	gamble	good	0.72	14.21	
68	16	mix	1681.7895028000057	1681.7972607999982	1689.7709410000098	0	0	0	-0.8	0.24	bottom	left	right	gamble	NaN	0	14.21	
69	45	mix	1692.8084801000077	1692.8156648000004	1696.4493234999973	1698.466359099999	3.633658699996886	0	-1.1	1.32	top	left	left	gamble	bad	-1.1	13.11	
70	60	gain	1711.7261953999987	1711.7334032000072	1715.9560926999984	1717.9718789000035	4.222689499991247	0.2	0	1	top	left	left	gamble	good	1.0	14.11	
71	36	mix	1723.0273529999977	1723.0356195000059	1729.8321629999991	1731.848064100006	6.796543499993277	0	-0.3	0.45	top	left	left	gamble	bad	-0.3	13.81	
72	103	loss	1736.7648133000039	1736.765565499998	1742.8091665000102	1742.8160349999962	6.043601000012131	-0.2	-0.4	0	top	right	left	safe	good	-0.2	13.61	
73	88	gain	1754.5536576000013	1754.5546585999982	1757.4674774000014	1759.484402400005	2.9128188000031514	0.5	0	1.8	bottom	right	right	gamble	good	1.8	15.41	
74	7	mix	1764.8210264000081	1764.8240230000083	1772.2268993000034	1772.2360900000058	7.402876299995114	0	-0.3	0.3	top	left	right	safe	bad	0.0	15.41	
75	61	gain	1779.437206600007	1779.4441052000038	1783.8372797000047	1785.853938500004	4.393174500000896	0.3	0	0.5	top	left	left	gamble	bad	0.0	15.41	
76	101	loss	1795.0311919000087	2086.9342022000055	2094.906103000001	0	0	-0.2	-0.34	0	bottom	left	left	gamble	NaN	0	15.41	
77	54	gain	2098.9235552000027	2098.924330900001	2101.7018871000037	2103.7180429	2.7775562000024365	0.2	0	0.44	top	right	right	gamble	good	0.44	15.85	
78	112	loss	2107.7960317000106	2107.802194600008	2111.5959110999975	2113.612208400009	3.7937164999893866	-0.3	-0.55	0	bottom	left	left	gamble	bad	-0.55	15.3	
79	118	loss	2128.0046109000104	2128.0055468000064	2131.7360483000084	2133.752040899999	3.730501500001992	-0.3	-1.08	0	top	right	right	gamble	good	0.0	15.3	
80	111	loss	2138.013942400008	2138.0189053000067	2141.9471964999975	2141.95421180001	3.928291199990781	-0.3	-0.5	0	top	left	right	safe	good	-0.3	15.0	
81	71	gain	2149.4336732000083	2149.4396590000106	2153.491063499998	2155.5074120000063	4.051404499987257	0.4	0	0.67	bottom	left	left	gamble	good	0.67	15.67	
82	119	loss	2171.863700800008	2171.864484500009	2177.3112008000026	2179.3271057000093	5.446716299993568	-0.3	-1.26	0	bottom	right	right	gamble	bad	-1.26	14.41	
83	31	mix	2184.525397400008	2184.5334083000052	2190.404833499997	2192.421039599998	5.871425199991791	0	-1.5	0.78	bottom	left	left	gamble	bad	-1.5	12.91	
84	106	loss	2197.157785000003	2197.1659739000024	2203.347559300004	2203.355366200005	6.181585400001495	-0.2	-0.56	0	bottom	left	right	safe	good	-0.2	12.71	
85	116	loss	2215.5419412000047	2215.548018100002	2220.13859290001	2220.1462215000065	4.590574800007744	-0.3	-0.84	0	bottom	left	right	safe	good	-0.3	12.41	
86	133	loss	2227.3952150999976	2227.395926600002	2233.8654536999966	2235.881473900008	6.469527099994593	-0.5	-1	0	bottom	right	right	gamble	good	0.0	12.41	
87	4	mix	2240.408444600005	2240.409409	2244.7259578000085	2246.7420058999996	4.316548800008604	0	-0.3	0.16	top	right	right	gamble	good	0.16	12.57	
88	109	loss	2253.5382705000084	2253.538993299997	2259.1518038000067	2261.16782290001	5.6128105000098	-0.2	-0.84	0	bottom	right	right	gamble	good	0.0	12.57	
89	46	mix	2266.3702025000093	2266.3786822999973	2270.4118936000013	2272.428278899999	4.033211300004041	0	-1.1	1.65	bottom	left	left	gamble	good	1.65	14.22	
90	53	gain	2276.9861440000095	2276.9868916999985	2281.1061754999973	2281.1145713000005	4.1192837999988114	0.2	0	0.4	top	right	left	safe	good	0.2	14.42	
91	137	loss	2294.6170133999985	2294.625285300004	2301.6126000000077	2303.6289219000028	6.9873147000034805	-0.5	-1.58	0	bottom	left	left	gamble	bad	-1.58	12.84	
92	115	loss	2308.4282301000057	2308.429009300002	2315.404562099997	2315.412291200002	6.975552799995057	-0.3	-0.74	0	top	right	left	safe	good	-0.3	12.54	
93	57	gain	2322.3747792000067	2322.380723299997	2329.1812385000085	2331.1965329000086	6.800515200011432	0.2	0	0.63	top	left	left	gamble	good	0.63	13.17	
94	55	gain	2342.290671499999	2342.2936725000036	2348.0874351000093	2350.103960200009	5.793762600005721	0.2	0	0.5	top	left	left	gamble	bad	0.0	13.17	
95	138	loss	2354.805877000006	2354.8066292000003	2359.8977352000074	2359.9055185000034	5.09110600000713	-0.5	-1.8	0	bottom	right	left	safe	bad	-0.5	12.67	
96	48	mix	2367.422133500004	2367.422904699997	2372.10846280001	2374.1247500000027	4.685558100012713	0	-1.5	1.8	bottom	right	right	gamble	bad	-1.5	11.17	
97	142	loss	2383.18508760001	2383.185901600009	2391.165479000003	0	0	-0.6	-1.09	0	top	right	NaN	NaN	Nan	0	11.17	
98	125	loss	2395.0430997000076	2395.0504916000064	2400.476092500001	2402.4929594999994	5.425600899994606	-0.4	-0.99	0	top	left	left	gamble	good	0.0	11.17	
99	132	loss	2407.3358270000026	2407.342464000001	2413.6696501999977	2415.686107900008	6.327186199996504	-0.5	-0.91	0	top	left	left	gamble	good	0.0	11.17	
100	120	loss	2424.3962331000075	2424.4026755000086	2431.4426307000103	2433.4589298000064	7.039955200001714	-0.3	-1.5	0	top	left	left	gamble	bad	-1.5	9.67	
101	17	mix	2438.3814906000043	2438.382255999997	2444.5200296999974	2444.528516300008	6.137773700000253	0	-0.8	0.32	top	right	left	safe	good	0.0	9.67	
102	49	mix	2452.0246684000012	2452.0253875000053	2456.1137233000045	2458.1291034000024	4.088335799999186	0	-1.5	2.25	bottom	right	right	gamble	good	2.25	11.92	
103	21	mix	2468.840275800001	2468.8476547000027	2474.603495000003	2476.6204271000024	5.755840300000273	0	-0.8	0.8	bottom	left	left	gamble	good	0.8	12.72	
104	135	loss	2481.857458300001	2481.8661968000088	2489.0463539000048	2489.054783700005	7.180157099995995	-0.5	-1.24	0	top	left	right	safe	bad	-0.5	12.22	
105	100	gain	2496.4878776999976	2496.500444300007	2501.623102400001	2503.638895199998	5.122658099993714	0.6	0	3	top	left	left	gamble	good	3.0	15.22	
106	22	mix	2515.100009700007	2515.1079962000076	2521.295956400005	2523.3122351000056	6.187960199997178	0	-1.1	0.22	top	left	left	gamble	bad	-1.1	14.12	
107	29	mix	2528.6387536999973	2528.639590100007	2535.9382295999967	2535.9465643000003	7.298639499989804	0	-1.5	0.45	top	right	left	safe	bad	0.0	14.12	
108	76	gain	2543.3430807999976	2543.35410940001	2547.198305400001	2549.215142400004	3.844195999990916	0.4	0	1.12	bottom	left	left	gamble	bad	0.0	14.12	
109	23	mix	2562.1413851000107	2562.142149799998	2568.12115050001	2568.1288104999985	5.979000700011966	0	-1.1	0.33	bottom	right	left	safe	good	0.0	14.12	
110	18	mix	2574.6936873000086	2574.6944299000024	2581.51341710001	2581.521139400007	6.818987200007541	0	-0.8	0.42	top	right	left	safe	bad	0.0	14.12	
111	97	gain	2588.9961156000063	2589.0033209999965	2592.3072428000014	2594.3236552000017	3.3039218000049004	0.6	0	1.9	top	left	left	gamble	bad	0.0	14.12	
112	8	mix	2604.6515413000016	2604.6523282999988	2609.2487406	2609.252231899998	4.596412300001248	0	-0.5	0.1	bottom	right	left	safe	bad	0.0	14.12	
113	75	gain	2616.040049400006	2616.046282199997	2620.0768528000044	2622.0925810000044	4.030570600007195	0.4	0	0.99	top	left	left	gamble	good	0.99	15.11	
114	39	mix	2627.569537800009	2627.577086400008	2633.769579700005	2635.784726900005	6.192493299997295	0	-0.5	0.75	top	left	left	gamble	good	0.75	15.86	
115	15	mix	2647.5463224999985	2647.5470523999975	2652.209241500008	2652.2170388000086	4.662189100010437	0	-0.8	0.16	top	right	left	safe	good	0.0	15.86	
116	102	loss	2659.5409097000083	2659.541624999998	2665.735748799998	2667.7519221999974	6.194123799999943	-0.2	-0.36	0	top	right	right	gamble	good	0.0	15.86	
117	114	loss	2671.805221500006	2671.8174683000107	2677.796249799998	2679.8125954999996	5.978781499987235	-0.3	-0.67	0	top	left	left	gamble	good	0.0	15.86	
118	19	mix	2690.7897620000003	2690.790559400004	2698.768895400004	0	0	0	-0.8	0.53	bottom	right	NaN	NaN	Nan	0	15.86	
119	65	gain	2702.6670603000093	2702.6692742000014	2707.6798135999998	2707.687638400006	5.010539399998379	0.3	0	0.74	top	right	left	safe	good	0.3	16.16	
120	20	mix	2714.861641299998	2714.8693207000033	2718.757595400006	2720.7734870999993	3.888274700002512	0	-0.8	0.66	top	left	left	gamble	bad	-0.8	15.36	
121	67	gain	2732.416927600003	2732.4177242000005	2739.2136177000066	2741.2295471000107	6.795893500006059	0.3	0	0.95	top	right	right	gamble	bad	0.0	15.36	
122	99	gain	2746.4009598999983	2746.4016746999987	2750.7407275000005	2752.7573846000014	4.339052800001809	0.6	0	2.52	bottom	right	right	gamble	good	2.52	17.88	
123	143	loss	2757.3105136000086	2757.311263399999	2765.2999872000073	0	0	-0.6	-1.2	0	top	right	NaN	NaN	Nan	0	17.88	
124	50	mix	2779.3588995000027	2779.3648726999963	2785.0552808000066	2787.07158470001	5.690408100010245	0	-1.5	3	top	left	left	gamble	good	3.0	20.88	
125	32	mix	2792.4683898000076	2792.4717339000053	2798.548279900002	2800.5643006000028	6.076545999996597	0	-1.5	0.99	top	left	left	gamble	good	0.99	21.87	
126	96	gain	2805.4537464000023	2805.4615015000018	2809.3591891999968	2811.375835400002	3.8976876999950036	0.6	0	1.68	bottom	left	left	gamble	good	1.68	23.55	
127	78	gain	2830.0824170999986	2830.083640099998	2834.6290721999976	2836.6451147000043	4.5454320999997435	0.4	0	1.44	top	right	right	gamble	bad	0.0	23.55	
128	148	loss	2841.1601404999965	2841.160874699999	2846.539413899998	2846.547312399998	5.378539199999068	-0.6	-2.16	0	bottom	right	left	safe	good	-0.6	22.95	
129	140	loss	2853.5881156000105	2853.588865700003	2861.5821319000097	0	0	-0.5	-2.5	0	top	right	NaN	NaN	Nan	0	22.95	
130	69	gain	2871.9087466000055	2871.909495400003	2876.1737120000034	2878.1899655000016	4.264216600000509	0.3	0	1.26	bottom	right	right	gamble	bad	0.0	22.95	
131	10	mix	2883.3359490000003	2883.3434318000072	2887.934626100003	2887.9422504000104	4.59119429999555	0	-0.5	0.2	top	left	right	safe	bad	0.0	22.95	
132	35	mix	2894.8754238999973	2894.8818736999965	2899.5278983000026	2901.5443642000027	4.646024600006058	0	-0.3	0.36	top	left	left	gamble	good	0.36	23.31	
133	25	mix	2913.037461300002	2913.044814699999	2919.483993700007	2921.501445300004	6.439179000008153	0	-1.1	0.57	top	left	left	gamble	good	0.57	23.88	
134	13	mix	2926.6587908000074	2926.6595062999986	2931.627992499998	2933.644531500002	4.968486199999461	0	-0.5	0.41	bottom	right	right	gamble	good	0.41	24.29	
135	91	gain	2938.2522283	2938.259822200009	2941.1724792000023	2943.1888688000035	2.9126569999934873	0.6	0	1.01	bottom	left	left	gamble	bad	0.0	24.29	
136	128	loss	2956.7640697000024	2956.76486570001	2962.9448613999994	2962.952631699998	6.179995699989377	-0.4	-1.44	0	top	right	left	safe	good	-0.4	23.89	
137	82	gain	2970.474674199999	2970.4830315	2974.3222179000004	2976.343621200009	3.8391864000004716	0.5	0	0.91	top	left	left	gamble	good	0.91	24.8	
138	26	mix	2981.829549000002	2981.8378347000107	2986.832385600006	2988.8485450000007	4.9945508999953745	0	-1.1	0.73	bottom	left	left	gamble	bad	-1.1	23.7	
139	28	mix	2999.8092079000053	2999.8099236999988	3005.3057862999995	3005.3141653000057	5.495862600000692	0	-1.5	0.3	top	right	left	safe	good	0.0	23.7	
140	104	loss	3012.0084215000097	3012.009130400009	3016.7490039999975	3018.764897300003	4.739873599988641	-0.2	-0.44	0	top	right	right	gamble	good	0.0	23.7	
141	136	loss	3022.9686247000063	3022.9768524999963	3028.4267838000087	3028.435103900003	5.449931300012395	-0.5	-1.4	0	top	left	right	safe	good	-0.5	23.2	
142	149	loss	3041.2865369000065	3041.287345600009	3046.1340990000026	3046.1419000000024	4.846753399993759	-0.6	-2.52	0	bottom	right	left	safe	bad	-0.6	22.6	
143	44	mix	3053.430591600001	3053.431367099998	3057.3607288000057	3059.376526100008	3.9293617000075756	0	-1.1	1.1	bottom	right	right	gamble	bad	-1.1	21.5	
144	70	gain	3064.6622361000045	3064.6694471000083	3067.7059606999974	3069.722054099999	3.036513599989121	0.3	0	1.5	top	left	left	gamble	bad	0.0	21.5	
145	63	gain	3081.1813672999997	3081.182172800007	3085.263332500006	3087.279321299997	4.081159699999262	0.3	0	0.6	bottom	right	right	gamble	good	0.6	22.1	
146	122	loss	3092.5174363999977	3092.525351999997	3098.4228658000065	3100.4391258999967	5.8975138000096194	-0.4	-0.73	0	top	left	left	gamble	bad	-0.73	21.37	
147	30	mix	3105.397980499998	3105.406597100009	3112.1650660000014	3112.1723388999962	6.758468899992295	0	-1.5	0.6	top	left	right	safe	good	0.0	21.37	
148	51	gain	3126.175597900001	3126.184267000004	3130.6225724000105	3132.6384379000083	4.438305400006357	0.2	0	0.34	bottom	left	left	gamble	bad	0.0	21.37	
149	98	gain	3138.0902747000073	3138.0909817000065	3143.048506799998	3145.064877800003	4.9575250999914715	0.6	0	2.16	bottom	right	right	gamble	bad	0.0	21.37	
150	144	loss	3149.6486981000053	3149.649420300004	3155.858684699997	3155.8664178000035	6.209264399993117	-0.6	-1.33	0	bottom	right	left	safe	good	-0.6	20.77	

Start Time: 14:09:43
End Time: 15:02:32