Round	Trial Num	TrialType	TrialOnset	ChoiceOnset	DecisionOnset	Feedback Onset	RT	Safe Bet	Low Bet	High Bet	High Bet Pos	Gamble Pos	Choice Pos	Gamble Choice	Outcome	Profit	TotalProfit	
1	127	loss	417.486692605773	417.4892939075362	423.0249060735805	423.0314979040413	5.535612166044302	-0.4	-1.26	0	top	right	left	safe	bad	-0.4	9.6	
2	146	loss	429.6373428287916	429.648157294665	439.61941463372204	0	0	-0.6	-1.68	0	bottom	left	left	safe	NaN	0	9.6	
3	33	mix	441.8374648896279	441.83824244706193	445.2316397622344	447.24818282638444	3.3933973151724786	0	-1.5	1.23	bottom	right	right	gamble	good	1.23	10.83	
4	26	mix	457.3430810185964	457.3517502040486	461.50754432129906	463.524546478875	4.15579411725048	0	-1.1	0.73	bottom	left	left	gamble	bad	-1.1	9.73	
5	56	gain	468.4022999726585	468.409734896617	472.4529582853429	474.4696641655173	4.043223388725892	0.2	0	0.56	bottom	left	left	gamble	bad	0.0	9.73	
6	102	loss	479.90104130579857	479.9017833645921	485.1474737745011	485.1544915890554	5.2456904099090025	-0.2	-0.36	0	top	right	left	safe	bad	-0.2	9.53	
7	7	mix	496.50911206559977	496.5161991707864	500.9405233392026	502.95676432328764	4.424324168416206	0	-0.3	0.3	top	left	left	gamble	good	0.3	9.83	
8	2	mix	508.132657515991	508.1334016227629	516.4166134471307	516.4237517523579	8.283211824367754	0	-0.3	0.09	top	right	left	safe	bad	0.0	9.83	
9	104	loss	523.2045211655786	523.2052611763938	530.9766876120702	530.9844843493775	7.771426435676403	-0.2	-0.44	0	top	right	left	safe	bad	-0.2	9.63	
10	65	gain	542.0218729850603	542.022633134562	551.3835303907981	553.4005147990538	9.360897256236058	0.3	0	0.74	top	right	right	gamble	bad	0.0	9.63	
11	66	gain	558.5430173940258	558.5499406591989	564.5113703272655	564.517997656425	5.9614296680665575	0.3	0	0.84	bottom	left	right	safe	good	0.3	9.93	
12	55	gain	571.8870070420671	571.8937722698902	576.1564119306859	576.1632956012036	4.262639660795685	0.2	0	0.5	top	left	right	safe	good	0.2	10.13	
13	60	gain	587.7343504613382	587.7372087871772	591.6159234758234	593.6319190412178	3.8787146886461414	0.2	0	1	top	left	left	gamble	good	1.0	11.13	
14	42	mix	598.6874478399986	598.6881957014557	601.6778918703785	601.684408948815	2.989696168922819	0	-0.8	1.2	top	right	left	safe	good	0.0	11.13	
15	123	loss	608.9121117717004	608.9128275478142	616.6551204958232	618.6710034211865	7.742292948008981	-0.4	-0.8	0	bottom	right	right	gamble	bad	-0.8	10.33	
16	41	mix	627.7488895571441	627.7566914145136	637.7285392603371	0	0	0	-0.8	0.96	bottom	left	right	gamble	NaN	0	10.33	
17	100	gain	641.1068312075804	641.1136916674441	646.2078136674827	648.2243185022962	5.094122000038624	0.6	0	3	top	left	left	gamble	good	3.0	13.33	
18	95	gain	653.6918093980639	653.6963228495442	656.2531229445594	658.2689137099078	2.5568000950152054	0.6	0	1.49	top	left	left	gamble	bad	0.0	13.33	
19	113	loss	667.4154375536018	667.4161761990399	669.2638790424098	671.2801050078124	1.847702843369916	-0.3	-0.6	0	bottom	right	right	gamble	good	0.0	13.33	
20	144	loss	675.8133145281463	675.8140292802709	678.7757678551134	678.7820838881889	2.9617385748424567	-0.6	-1.33	0	bottom	right	left	safe	good	-0.6	12.73	
21	106	loss	686.0259901484824	686.0329618830001	690.4084429497016	692.4206261624931	4.375481066701468	-0.2	-0.56	0	bottom	left	left	gamble	bad	-0.56	12.17	
22	87	gain	701.9662011676119	701.974714705022	707.1475106385187	709.1633310999023	5.172795933496673	0.5	0	1.58	bottom	left	left	gamble	bad	0.0	12.17	
23	76	gain	714.1144978968659	714.1210207780241	718.2913799324306	718.2984202749794	4.170359154406469	0.4	0	1.12	bottom	left	right	safe	good	0.4	12.57	
24	25	mix	725.2651303706225	725.2729185745702	731.5192462539999	733.535671216785	6.246327679429669	0	-1.1	0.57	top	left	left	gamble	good	0.57	13.14	
25	23	mix	742.897484953166	742.8982505640015	748.2448698444641	750.2614726419561	5.346619280462619	0	-1.1	0.33	bottom	right	right	gamble	bad	-1.1	12.04	
26	13	mix	754.8182095903321	754.8190028491081	760.0229024466244	762.039505585446	5.203899597516283	0	-0.5	0.41	bottom	right	right	gamble	good	0.41	12.45	
27	61	gain	766.6468049317482	766.6538234289619	773.4835741838906	775.4994427732308	6.829750754928682	0.3	0	0.5	top	left	left	gamble	bad	0.0	12.45	
28	1	mix	784.7612864446128	784.7685493365279	790.4425380595494	790.4499190528295	5.673988723021466	0	-0.3	0.06	bottom	left	right	safe	good	0.0	12.45	
29	36	mix	797.1360121405451	797.1425104456721	804.5527255983325	804.5592488208204	7.410215152660385	0	-0.3	0.45	top	left	right	safe	good	0.0	12.45	
30	135	loss	811.4744626303436	811.4834919225541	818.6630032491521	820.6792295559426	7.1795113265980035	-0.5	-1.24	0	top	left	left	gamble	good	0.0	12.45	
31	9	mix	830.1242671998916	830.1250259840162	835.3551925513311	835.3620973844663	5.230166567314882	0	-0.5	0.15	bottom	right	left	safe	bad	0.0	12.45	
32	69	gain	841.901541017869	841.9024260953884	846.5170183709124	848.5327934349771	4.614592275524046	0.3	0	1.26	bottom	right	right	gamble	bad	0.0	12.45	
33	81	gain	853.685456501029	853.6908591259271	863.6762418647413	0	0	0.5	0	0.84	bottom	left	right	gamble	NaN	0	12.45	
34	47	mix	871.6224600102287	871.6316384651582	874.5871244948939	876.6044608178199	2.9554860297357664	0	-1.1	2.2	top	left	left	gamble	bad	-1.1	11.35	
35	124	loss	881.8812125663972	881.8819693025434	884.8159646405838	884.8224376870785	2.933995338040404	-0.4	-0.89	0	bottom	right	left	safe	bad	-0.4	10.95	
36	129	loss	891.8388711831649	891.8395883246558	896.8777005871525	896.8846549136797	5.038112262496725	-0.4	-1.68	0	top	right	left	safe	bad	-0.4	10.55	
37	110	loss	907.5564911883557	907.5634161601774	912.0206216568477	912.0269571459503	4.457205496670213	-0.2	-1	0	top	left	right	safe	bad	-0.2	10.35	
38	16	mix	919.2447496951208	919.2531069018878	924.664533105446	926.6816185483476	5.4114262035582215	0	-0.8	0.24	bottom	left	left	gamble	bad	-0.8	9.55	
39	63	gain	931.7084200462559	931.7091337743914	934.1768164995592	936.1935872330796	2.4676827251678333	0.3	0	0.6	bottom	right	right	gamble	good	0.6	10.15	
40	18	mix	945.5393309933715	945.5401351748733	948.0043448327342	950.0209199822857	2.46420965786092	0	-0.8	0.42	top	right	right	gamble	good	0.42	10.57	
41	128	loss	954.9879010966397	954.9886527127237	958.1164810439222	958.1210801700363	3.1278283311985433	-0.4	-1.44	0	top	right	left	safe	good	-0.4	10.17	
42	134	loss	965.620788841974	965.6215254394338	968.9452607053681	968.951620429114	3.323735265934374	-0.5	-1.11	0	bottom	right	left	safe	bad	-0.5	9.67	
43	43	mix	980.0399237188394	980.0406749936519	982.3388484845054	984.3551973299473	2.2981734908535145	0	-0.8	1.6	top	right	right	gamble	good	1.6	11.27	
44	32	mix	988.642668653687	988.648876484076	994.4162390044075	996.4333671139902	5.767362520331517	0	-1.5	0.99	top	left	left	gamble	good	0.99	12.26	
45	5	mix	1001.3200888013234	1001.3254702635459	1004.9119038996287	1006.9273591343081	3.586433636082802	0	-0.3	0.2	top	left	left	gamble	bad	-0.3	11.96	
46	24	mix	1016.9566984459525	1016.9574514274136	1025.0869266921654	1027.1024454148137	8.129475264751818	0	-1.1	0.44	bottom	right	right	gamble	good	0.44	12.4	
47	147	loss	1031.8095718075056	1031.8176115742535	1034.6319559052354	1036.6478896892513	2.8143443309818394	-0.6	-1.9	0	top	left	left	gamble	bad	-1.9	10.5	
48	114	loss	1041.5536820145207	1041.5601919249748	1045.093706938671	1045.1001137664425	3.53351501369616	-0.3	-0.67	0	top	left	right	safe	bad	-0.3	10.2	
49	68	gain	1056.2389535128023	1056.2397320942837	1060.1370303380536	1062.153562820924	3.89729824376991	0.3	0	1.08	top	right	right	gamble	good	1.08	11.28	
50	6	mix	1066.2013375490205	1066.2568134411704	1070.165694492287	1072.1822563298047	3.908881051116623	0	-0.3	0.25	bottom	left	left	gamble	bad	-0.3	10.98	
51	12	mix	1077.3672890653834	1077.3730480423546	1083.2260070785997	1083.232386941032	5.852959036245011	0	-0.5	0.33	bottom	left	right	safe	good	0.0	10.98	
52	139	loss	1094.0048940381967	1094.0129703275743	1102.0347064379603	1104.0502565632924	8.021736110385973	-0.5	-2.1	0	top	left	left	gamble	good	0.0	10.98	
53	39	mix	1109.1832492686226	1109.191205408657	1117.0112373779411	1119.0274599300465	7.820031969284173	0	-0.5	0.75	top	left	left	gamble	good	0.75	11.73	
54	10	mix	1124.2244802943314	1124.22743521753	1127.323233847157	1127.3296290696017	3.0957986296270974	0	-0.5	0.2	top	left	right	safe	bad	0.0	11.73	
55	49	mix	1139.3519949400797	1139.3527226629085	1141.9165648071212	1143.9331256205915	2.5638421442126855	0	-1.5	2.25	bottom	right	right	gamble	good	2.25	13.98	
56	126	loss	1148.9612791400868	1148.9697622988606	1153.8274006745778	1153.8338655289845	4.857638375717215	-0.4	-1.12	0	bottom	left	right	safe	good	-0.4	13.58	
57	20	mix	1161.1536174342618	1161.161502235569	1163.97328656615	1163.9796933938633	2.811784330580849	0	-0.8	0.66	top	left	right	safe	good	0.0	13.58	
58	122	loss	1175.7519352750387	1175.7598432870582	1182.497762730287	1182.504811947525	6.737919443228748	-0.4	-0.73	0	top	left	right	safe	good	-0.4	13.18	
59	131	loss	1189.4775390682044	1189.4852194108535	1196.458745934302	1198.4754183638142	6.973526523448527	-0.5	-0.84	0	bottom	left	left	gamble	bad	-0.84	12.34	
60	77	gain	1203.1719026640058	1203.1727464401629	1205.455395064433	1205.4615714921383	2.282648624270223	0.4	0	1.26	top	right	left	safe	bad	0.4	12.74	
61	121	loss	1216.5497897898313	1216.5560611082474	1222.9795141938375	1224.9958019406185	6.423453085590154	-0.4	-0.67	0	bottom	left	left	gamble	good	0.0	12.74	
62	89	gain	1229.6284258352825	1229.6344493456418	1232.8424848798313	1234.8576093623997	3.2080355341895483	0.5	0	2.1	top	left	left	gamble	good	2.1	14.84	
63	141	loss	1240.0650195737835	1240.0714506361983	1242.7543106140802	1242.7605085457908	2.68285997788189	-0.6	-1.01	0	bottom	left	right	safe	good	-0.6	14.24	
64	136	loss	1253.8995196415344	1253.9078686562716	1259.5462296825717	1259.5532556890976	5.638361026300117	-0.5	-1.4	0	top	left	right	safe	good	-0.5	13.74	
65	46	mix	1266.41250242776	1266.4216743973084	1270.708255523583	1272.7248682197533	4.286581126274541	0	-1.1	1.65	bottom	left	left	gamble	good	1.65	15.39	
66	58	gain	1277.2819052001578	1277.2826574989012	1280.387148524751	1282.4034308101982	3.104491025849711	0.2	0	0.72	bottom	right	right	gamble	good	0.72	16.11	
67	75	gain	1291.9818403809331	1291.9889718594495	1296.9297215027036	1298.9449828599463	4.940749643254094	0.4	0	0.99	top	left	left	gamble	good	0.99	17.1	
68	98	gain	1304.4224365947885	1304.423238386924	1307.2911898097373	1309.3077717858832	2.8679514228133485	0.6	0	2.16	bottom	right	right	gamble	bad	0.0	17.1	
69	50	mix	1313.8909091653768	1313.8982662653434	1318.3201297612977	1320.3366318654735	4.421863495954312	0	-1.5	3	top	left	left	gamble	good	3.0	20.1	
70	17	mix	1330.5141310317558	1330.514961837267	1335.9619908201857	1337.9782000603154	5.4470289829187095	0	-0.8	0.32	top	right	right	gamble	bad	-0.8	19.3	
71	71	gain	1343.4449325132882	1343.4523387652007	1348.9390457069385	1350.955887779186	5.486706941737793	0.4	0	0.67	bottom	left	left	gamble	good	0.67	19.97	
72	37	mix	1355.6935679477174	1355.7007308289176	1360.2844563259277	1362.3004751019762	4.583725497010164	0	-0.3	0.6	bottom	left	left	gamble	bad	-0.3	19.67	
73	48	mix	1371.6463649530197	1371.647142169124	1374.4113627155311	1376.4278716463596	2.7642205464071594	0	-1.5	1.8	bottom	right	right	gamble	bad	-1.5	18.17	
74	120	loss	1381.194451147865	1381.202332535875	1385.3065706336638	1387.3228863697732	4.104238097788766	-0.3	-1.5	0	top	left	left	gamble	bad	-1.5	16.67	
75	150	loss	1392.2106149906176	1392.2160920262104	1396.034976091294	1396.0413504923927	3.8188840650836937	-0.6	-3	0	top	left	right	safe	bad	-0.6	16.07	
76	137	loss	1407.7119996095425	1415.2612879805965	1420.257425793272	1422.2738476840896	4.9961378126754425	-0.5	-1.58	0	bottom	left	left	gamble	bad	-1.58	14.49	
77	142	loss	1427.0702006733627	1427.070937953482	1432.018126168463	1434.0347671952914	4.947188214980997	-0.6	-1.09	0	top	right	right	gamble	bad	-1.09	13.4	
78	103	loss	1439.4826437090524	1439.4833898638608	1445.612379752507	1447.6286825179704	6.128989888646174	-0.2	-0.4	0	top	right	right	gamble	bad	-0.4	13.0	
79	133	loss	1457.173567005666	1457.1743435391109	1460.6883991361829	1462.7055415817886	3.5140555970720015	-0.5	-1	0	bottom	right	right	gamble	good	0.0	13.0	
80	92	gain	1467.239861459646	1467.2406096624327	1469.3182234143023	1471.3349996092147	2.0776137518696487	0.6	0	1.09	top	right	right	gamble	bad	0.0	13.0	
81	138	loss	1476.277750490117	1476.2784918661928	1481.7960928932298	1483.812699445407	5.517601027037017	-0.5	-1.8	0	bottom	right	right	gamble	good	0.0	13.0	
82	28	mix	1493.1066772662452	1493.1074316130253	1495.1733512829524	1497.1899062937591	2.065919669927098	0	-1.5	0.3	top	right	right	gamble	bad	-1.5	11.5	
83	27	mix	1501.8549251165823	1501.8556736606988	1508.3006379180006	1510.31679561676	6.444964257301763	0	-1.1	0.9	top	right	right	gamble	good	0.9	12.4	
84	57	gain	1515.1338958735578	1515.1399443012197	1520.4951047672075	1522.5105265511665	5.355160465987865	0.2	0	0.63	top	left	left	gamble	good	0.63	13.03	
85	109	loss	1531.9233163815807	1531.9240410323837	1537.0038311260287	1537.01057246048	5.079790093644988	-0.2	-0.84	0	bottom	right	left	safe	bad	-0.2	12.83	
86	148	loss	1544.2493054718943	1544.2501611947082	1548.532549722935	1548.539453532081	4.282388528226875	-0.6	-2.16	0	bottom	right	left	safe	good	-0.6	12.23	
87	116	loss	1555.5815679286025	1555.587396537594	1560.660399216751	1560.6672982472228	5.073002679157071	-0.3	-0.84	0	bottom	left	right	safe	good	-0.3	11.93	
88	90	gain	1572.588954724546	1572.5897063406883	1574.8872490474605	1576.9038614023011	2.2975427067722194	0.5	0	2.5	top	right	right	gamble	bad	0.0	11.93	
89	52	gain	1582.0964621818275	1582.097291280632	1586.1988120232709	1586.2054816777818	4.101520742638968	0.2	0	0.36	top	right	left	safe	bad	0.2	12.13	
90	73	gain	1593.0439009355032	1593.0449194743414	1595.7442733643693	1597.7606331324787	2.699353890027851	0.4	0	0.8	bottom	right	right	gamble	bad	0.0	12.13	
91	111	loss	1606.4237493629917	1606.4288079238613	1613.2364375444013	1615.252295211074	6.807629620539956	-0.3	-0.5	0	top	left	left	gamble	bad	-0.5	11.63	
92	82	gain	1620.6681024287245	1620.6768552408903	1623.2648542319075	1623.2710050595924	2.58799899101723	0.5	0	0.91	top	left	right	safe	bad	0.5	12.13	
93	112	loss	1630.7674307869747	1630.7733006973285	1634.810162314272	1634.8167790620937	4.036861616943497	-0.3	-0.55	0	bottom	left	right	safe	good	-0.3	11.83	
94	40	mix	1646.5878624576726	1646.5886779031716	1651.418781596818	1653.4352816529572	4.830103693646379	0	-0.5	1	top	right	right	gamble	bad	-0.5	11.33	
95	99	gain	1658.9204341624281	1658.921167005261	1661.4146965187974	1663.4309361375635	2.4935295135364868	0.6	0	2.52	bottom	right	right	gamble	good	2.52	13.85	
96	93	gain	1667.9802842420177	1667.9810491701355	1672.843441637291	1674.8582473145216	4.862392467155587	0.6	0	1.2	top	right	right	gamble	good	1.2	15.05	
97	70	gain	1684.0548024413874	1684.0606146663777	1690.001865387021	1690.008734380186	5.941250720643438	0.3	0	1.5	top	left	right	safe	good	0.3	15.35	
98	91	gain	1696.5961674404098	1696.6037047643913	1702.4628238443402	1702.469271632086	5.859119079948869	0.6	0	1.01	bottom	left	right	safe	good	0.6	15.95	
99	86	gain	1709.9759322412428	1709.9834456718527	1715.95663939527	1717.972722683393	5.973193723417353	0.5	0	1.4	top	left	left	gamble	bad	0.0	15.95	
100	14	mix	1727.068890977127	1727.076291426376	1731.848920038261	1733.8661205105018	4.772628611885011	0	-0.5	0.5	top	left	left	gamble	good	0.5	16.45	
101	3	mix	1738.414930332161	1738.4156908229925	1743.8102913383045	1743.8169801074546	5.3946005153120495	0	-0.3	0.12	top	right	left	safe	good	0.0	16.45	
102	78	gain	1750.6594602085534	1750.6602237713523	1756.1046647645417	1756.11124157632	5.444440993189346	0.4	0	1.44	top	right	left	safe	good	0.4	16.85	
103	85	gain	1766.5167128775502	1766.524574809533	1772.381043094385	1772.3876728128525	5.856468284851871	0.5	0	1.24	top	left	right	safe	bad	0.5	17.35	
104	119	loss	1779.125520234753	1779.1262663895614	1782.9924575560726	1785.0089483961929	3.866191166511271	-0.3	-1.26	0	bottom	right	right	gamble	bad	-1.26	16.09	
105	30	mix	1790.206813902012	1790.2145867459476	1797.5032684379257	1799.5193722060067	7.288681691978127	0	-1.5	0.6	top	left	left	gamble	bad	-1.5	14.59	
106	31	mix	1809.2481971624075	1809.2550269021885	1815.594357690774	1815.601109947951	6.339330788585357	0	-1.5	0.78	bottom	left	right	safe	good	0.0	14.59	
107	54	gain	1822.3609255869524	1822.3616625257418	1828.9717727525276	1828.9788776070927	6.610110226785764	0.2	0	0.44	top	right	left	safe	bad	0.2	14.79	
108	94	gain	1835.5895541059435	1835.5903282500803	1841.5497911552084	1843.5659075526055	5.959462905128021	0.6	0	1.33	bottom	right	right	gamble	bad	0.0	14.79	
109	8	mix	1852.9608398440178	1852.961596238776	1856.8590084879543	1856.865395518369	3.89741224917816	0	-0.5	0.1	bottom	right	left	safe	bad	0.0	14.79	
110	101	loss	1863.6641709507094	1863.6725230374723	1868.2046389256138	1868.211203108076	4.532115888141561	-0.2	-0.34	0	bottom	left	right	safe	good	-0.2	14.59	
111	19	mix	1875.765685549355	1875.7665941788582	1878.0498162431759	1878.056022708246	2.2832220643176697	0	-0.8	0.53	bottom	right	left	safe	good	0.0	14.59	
112	64	gain	1889.9452132600127	1889.9513879810693	1895.3421515677474	1897.3586710799136	5.3907635866780765	0.3	0	0.67	top	left	left	gamble	good	0.67	15.26	
113	149	loss	1901.9678648265544	1901.9686328266398	1905.6374537621741	1905.6440022432362	3.6688209355343133	-0.6	-2.52	0	bottom	right	left	safe	bad	-0.6	14.66	
114	44	mix	1912.9215189199313	1912.9222992081195	1916.599300539645	1918.6150104089756	3.677001331525389	0	-1.1	1.1	bottom	right	right	gamble	bad	-1.1	13.56	
115	80	gain	1927.6608221288188	1927.6657410843181	1931.0929631732288	1933.108686695923	3.4272220889106393	0.4	0	2	top	left	left	gamble	bad	0.0	13.56	
116	21	mix	1938.2920059378375	1938.2990770004108	1943.3365796414437	1943.3432325706235	5.037502641032916	0	-0.8	0.8	bottom	left	right	safe	bad	0.0	13.56	
117	88	gain	1950.6059026101138	1950.606646375556	1953.7822531895363	1955.7979640828562	3.1756068139802665	0.5	0	1.8	bottom	right	right	gamble	good	1.8	15.36	
118	140	loss	1964.9264808834996	1964.9271901742322	1969.991696041252	1969.9987326291157	5.064505867019761	-0.5	-2.5	0	top	right	left	safe	good	-0.5	14.86	
119	4	mix	1976.8002592085977	1976.80101082474	1982.4354267196613	1982.4420520007843	5.634415894921403	0	-0.3	0.16	top	right	left	safe	bad	0.0	14.86	
120	125	loss	1988.9943311350653	1989.0019476483576	1994.5472929360694	1996.5637503255857	5.545345287711825	-0.4	-0.99	0	top	left	left	gamble	good	0.0	14.86	
121	117	loss	2005.8755576960975	2005.8764400429209	2010.923279858951	2012.9392829336575	5.046839816030115	-0.3	-0.95	0	top	right	right	gamble	bad	-0.95	13.91	
122	34	mix	2017.4773581614718	2017.4781428869464	2021.3352047505905	2021.3415979249985	3.8570618636440486	0	-1.5	1.5	bottom	right	left	safe	bad	0.0	13.91	
123	62	gain	2028.5855724519351	2028.5913925276254	2033.712727332313	2033.7196997494902	5.121334804687649	0.3	0	0.55	bottom	left	right	safe	good	0.3	14.21	
124	143	loss	2045.5408475376316	2045.541578332428	2049.5555576414918	2049.562111242616	4.0139793090638705	-0.6	-1.2	0	top	right	left	safe	bad	-0.6	13.61	
125	145	loss	2057.087662265636	2057.0947729228646	2059.3010970114265	2059.307439327182	2.2063240885618143	-0.6	-1.49	0	top	left	right	safe	good	-0.6	13.01	
126	118	loss	2066.415348806884	2066.4161325083696	2070.9452641186654	2072.961238862714	4.529131610295735	-0.3	-1.08	0	top	right	right	gamble	good	0.0	13.01	
127	83	gain	2081.091098810255	2081.09191903437	2082.5739664339926	2084.5906071194913	1.4820473996223882	0.5	0	1	bottom	right	right	gamble	good	1.0	14.01	
128	45	mix	2090.087125689548	2090.0957897550543	2092.4527930799522	2094.469455952116	2.35700332489796	0	-1.1	1.32	top	left	left	gamble	bad	-1.1	12.91	
129	132	loss	2099.176189470105	2099.184132639435	2103.347933414043	2105.3639965634793	4.163800774607807	-0.5	-0.91	0	top	left	left	gamble	good	0.0	12.91	
130	67	gain	2114.442768118228	2114.4435518197133	2116.9416770460666	2118.9583600569167	2.498125226353295	0.3	0	0.95	top	right	right	gamble	bad	0.0	12.91	
131	11	mix	2124.129399830126	2124.137522199482	2128.0367175742867	2128.043290972768	3.899195374804549	0	-0.5	0.26	top	left	right	safe	good	0.0	12.91	
132	35	mix	2134.9219708453747	2134.9287183238775	2142.8468112805276	2144.863330451364	7.918092956650071	0	-0.3	0.36	top	left	left	gamble	good	0.36	13.27	
133	72	gain	2153.89177376288	2153.8992871934897	2157.6392443971126	2157.6415985735366	3.7399572036229074	0.4	0	0.73	top	left	right	safe	good	0.4	13.67	
134	38	mix	2164.9301235934254	2164.9308779402054	2169.703536589397	2171.716693967697	4.772658649191726	0	-0.5	0.6	bottom	right	right	gamble	good	0.6	14.27	
135	79	gain	2176.395720771572	2176.3965522596845	2180.6962586788577	2182.712902777712	4.299706419173162	0.4	0	1.68	top	right	right	gamble	good	1.68	15.95	
136	59	gain	2193.79119236971	2193.791942279204	2202.619171945669	2204.6356276284787	8.827229666465428	0.2	0	0.84	bottom	right	right	gamble	good	0.84	16.79	
137	97	gain	2209.7542126514018	2209.759958657727	2213.264317997149	2215.2813286880264	3.5043593394220807	0.6	0	1.9	top	left	left	gamble	bad	0.0	16.79	
138	53	gain	2220.303162761091	2220.3038706865627	2224.376494485594	2226.3926248776843	4.072623799031135	0.2	0	0.4	top	right	right	gamble	bad	0.0	16.79	
139	15	mix	2235.4884098540642	2235.4892433902132	2237.903177028813	2237.909769541933	2.4139336385997012	0	-0.8	0.16	top	right	left	safe	good	0.0	16.79	
140	130	loss	2245.2505486081354	2245.2575213666423	2250.331340856559	2252.348494566162	5.0738194899167866	-0.4	-2	0	top	left	left	gamble	bad	-2.0	14.79	
141	96	gain	2257.78514394199	2257.7914094577427	2262.9751638997695	2262.9820837516454	5.183754442026839	0.6	0	1.68	bottom	left	right	safe	bad	0.6	15.39	
142	22	mix	2275.019917486061	2275.027858607413	2277.869129022991	2279.8851116177393	2.8412704155780375	0	-1.1	0.22	top	left	left	gamble	bad	-1.1	14.29	
143	108	loss	2285.2107784893014	2285.2115666281315	2291.579434594896	2291.5859028626583	6.3678679667646065	-0.2	-0.72	0	bottom	right	left	safe	bad	-0.2	14.09	
144	107	loss	2298.621900906146	2298.630024982209	2300.7083985422505	2302.7244879743084	2.078373560041655	-0.2	-0.63	0	top	left	left	gamble	good	0.0	14.09	
145	74	gain	2311.9037054129294	2311.9044689757284	2318.034080773825	2320.049581747153	6.129611798096448	0.4	0	0.89	bottom	right	right	gamble	good	0.89	14.98	
146	84	gain	2324.587856655009	2324.588604857796	2328.0128453995567	2330.029541039723	3.4242405417608097	0.5	0	1.11	bottom	right	right	gamble	good	1.11	16.09	
147	105	loss	2335.3068819297478	2335.310438623652	2339.1743234004243	2339.1802513374714	3.8638847767724656	-0.2	-0.5	0	top	left	right	safe	good	-0.2	15.89	
148	51	gain	2350.1357718418585	2350.1420783175854	2356.9997723306296	2359.0163433841662	6.857694013044238	0.2	0	0.34	bottom	left	left	gamble	bad	0.0	15.89	
149	29	mix	2364.4693501387956	2364.470099024242	2370.0778868186753	2370.0848206651863	5.607787794433534	0	-1.5	0.45	top	right	left	safe	bad	0.0	15.89	
150	115	loss	2377.4967817381257	2377.497616298264	2380.988846931432	2380.9951742285048	3.4912306331680156	-0.3	-0.74	0	top	right	left	safe	good	-0.3	15.59	

Start Time: 15:15:51
End Time: 15:55:44