Round	Trial Num	TrialType	TrialOnset	ChoiceOnset	DecisionOnset	Feedback Onset	RT	Safe Bet	Low Bet	High Bet	High Bet Pos	Gamble Pos	Choice Pos	Gamble Choice	Outcome	Profit	TotalProfit	
1	31	mix	64.98854649998248	65.00219649996143	72.04567829996813	72.05331589991692	7.0434818000067025	0	-1.5	0.78	bottom	left	right	safe	good	0.0	10.0	
2	39	mix	78.8242758999113	78.83016959996894	82.05679339997005	82.06362869997974	3.226623800001107	0	-0.5	0.75	top	left	right	safe	bad	0.0	10.0	
3	56	gain	89.27009689994156	89.28108370001428	92.68452319991775	94.70093269995414	3.4034394999034703	0.2	0	0.56	bottom	left	left	gamble	bad	0.0	10.0	
4	95	gain	109.0765073999064	109.08470120001584	112.12433569994755	114.14056769991294	3.039634499931708	0.6	0	1.49	top	left	left	gamble	bad	0.0	10.0	
5	59	gain	119.50686650001444	119.50760629994329	123.53452479990665	125.55142889998388	4.026918499963358	0.2	0	0.84	bottom	right	right	gamble	good	0.84	10.84	
6	127	loss	130.6736112999497	130.67436119995546	135.2118402000051	137.22731489990838	4.537479000049643	-0.4	-1.26	0	top	right	right	gamble	good	0.0	10.84	
7	42	mix	150.871267599985	150.8719984999625	154.38470499997493	154.3938366000075	3.5127065000124276	0	-0.8	1.2	top	right	left	safe	good	0.0	10.84	
8	16	mix	161.63223439990543	161.64009389991406	165.97868850000668	167.99526080000214	4.33859460009262	0	-0.8	0.24	bottom	left	left	gamble	bad	-0.8	10.04	
9	44	mix	173.02241739991587	173.0231308999937	176.57306239998434	178.5894144999329	3.5499314999906346	0	-1.1	1.1	bottom	right	right	gamble	bad	-1.1	8.94	
10	89	gain	192.6157297999598	192.62314299994614	196.06278669997118	198.0802107999334	3.4396437000250444	0.5	0	2.1	top	left	left	gamble	good	2.1	11.04	
11	81	gain	203.28859349992126	203.29374090000056	207.30729419994168	209.32321689999662	4.0135532999411225	0.5	0	0.84	bottom	left	left	gamble	bad	0.0	11.04	
12	48	mix	214.81531510001514	214.81603139999788	218.68413609999698	218.6919373999117	3.868104699999094	0	-1.5	1.8	bottom	right	left	safe	good	0.0	11.04	
13	105	loss	231.9269089999143	231.9329088999657	235.2759333999129	235.28353060001973	3.343024499947205	-0.2	-0.5	0	top	left	right	safe	good	-0.2	10.84	
14	82	gain	242.0587557000108	242.06622919999063	245.7202546999324	247.73551329993643	3.654025499941781	0.5	0	0.91	top	left	left	gamble	good	0.91	11.75	
15	32	mix	253.20571529993322	253.21333549998235	258.9299896999728	258.9375389999477	5.716654199990444	0	-1.5	0.99	top	left	right	safe	bad	0.0	11.75	
16	110	loss	273.2398780999938	273.24666850001086	278.3031379999593	278.31076899997424	5.0564694999484345	-0.2	-1	0	top	left	right	safe	bad	-0.2	11.55	
17	58	gain	285.5342934000073	285.53500889998395	290.27954849996604	292.2959910999052	4.74453959998209	0.2	0	0.72	bottom	right	right	gamble	good	0.72	12.27	
18	24	mix	297.5232324999524	297.5240319999866	301.89061859995127	303.9062145999633	4.3665865999646485	0	-1.1	0.44	bottom	right	right	gamble	good	0.44	12.71	
19	126	loss	315.73405610001646	315.74228699994273	319.89773520000745	319.9054249000037	4.155448200064711	-0.4	-1.12	0	bottom	left	right	safe	good	-0.4	12.31	
20	113	loss	327.2298260999378	327.23057079990394	330.5587579999119	330.5662429999793	3.32818720000796	-0.3	-0.6	0	bottom	right	left	safe	bad	-0.3	12.01	
21	1	mix	337.1316479999805	337.1392239999259	342.78524409991223	342.7929639999056	5.646020099986345	0	-0.3	0.06	bottom	left	right	safe	good	0.0	12.01	
22	116	loss	356.24538599990774	356.25301949994173	361.12591780000366	361.1336781999562	4.872898300061934	-0.3	-0.84	0	bottom	left	right	safe	good	-0.3	11.71	
23	86	gain	368.38113250001334	368.38672479998786	372.1034047999419	374.1198645000113	3.716679999954067	0.5	0	1.4	top	left	left	gamble	bad	0.0	11.71	
24	111	loss	379.3916495000012	379.39912989991717	384.66341159993317	386.67949229991063	5.264281700015999	-0.3	-0.5	0	top	left	left	gamble	bad	-0.5	11.21	
25	13	mix	399.5896534000058	399.5904018000001	403.83679189998657	405.8519044999266	4.246390099986456	0	-0.5	0.41	bottom	right	right	gamble	good	0.41	11.62	
26	103	loss	410.46165219997056	410.4623721999815	414.41437409992795	416.4306142999558	3.952001899946481	-0.2	-0.4	0	top	right	right	gamble	bad	-0.4	11.22	
27	47	mix	421.466829199926	421.4751241999911	428.8064377999399	430.82302559993695	7.331313599948771	0	-1.1	2.2	top	left	left	gamble	bad	-1.1	10.12	
28	83	gain	440.7012408999726	440.7019683999242	446.88062969991006	448.8963710999815	6.1786612999858335	0.5	0	1	bottom	right	right	gamble	good	1.0	11.12	
29	78	gain	454.3937374999514	454.3944541999372	457.4910009999294	459.5068511000136	3.096546799992211	0.4	0	1.44	top	right	right	gamble	bad	0.0	11.12	
30	147	loss	464.02835109992884	464.03619979997166	469.301982200006	469.3097722999519	5.265782400034368	-0.6	-1.9	0	top	left	right	safe	good	-0.6	10.52	
31	150	loss	485.2592103999341	485.2622923000017	490.1741175999632	490.18098119995557	4.911825299961492	-0.6	-3	0	top	left	right	safe	bad	-0.6	9.92	
32	128	loss	497.51389529998414	497.51477179990616	504.4828851999482	504.49108439998236	6.968113400042057	-0.4	-1.44	0	top	right	left	safe	good	-0.4	9.52	
33	51	gain	512.0093056999613	512.0151201999979	516.6270046000136	518.6431192000164	4.611884400015697	0.2	0	0.34	bottom	left	left	gamble	bad	0.0	9.52	
34	120	loss	530.2187759999651	530.225234100013	534.8000942999497	534.8079643999226	4.574860199936666	-0.3	-1.5	0	top	left	right	safe	good	-0.3	9.22	
35	100	gain	541.7261251999298	541.7327567000175	545.8782182999421	547.8942201000173	4.145461599924602	0.6	0	3	top	left	left	gamble	good	3.0	12.22	
36	104	loss	553.3600033000112	553.3607469999697	561.3387170999777	0	0	-0.2	-0.44	0	top	right	NaN	NaN	Nan	0	12.22	
37	52	gain	568.948969699908	568.9497254999587	573.6961519999895	575.7128474999918	4.746426500030793	0.2	0	0.36	top	right	right	gamble	good	0.36	12.58	
38	133	loss	580.0210461999523	580.021762499935	586.6231366000138	586.6308121000184	6.601374100078829	-0.5	-1	0	bottom	right	left	safe	bad	-0.5	12.08	
39	10	mix	593.2016623999225	593.2094367999816	598.5331484000199	598.5415876000188	5.323711600038223	0	-0.5	0.2	top	left	right	safe	bad	0.0	12.08	
40	129	loss	615.224123199936	615.2249101999914	621.3883254999528	621.3970199999167	6.163415299961343	-0.4	-1.68	0	top	right	left	safe	bad	-0.4	11.68	
41	106	loss	628.0373003999703	628.0454203999834	631.6659475999186	631.6729008000111	3.620527199935168	-0.2	-0.56	0	bottom	left	right	safe	good	-0.2	11.48	
42	37	mix	638.902515099966	638.9095808999846	643.326558599947	643.3346995000029	4.416977699962445	0	-0.3	0.6	bottom	left	right	safe	good	0.0	11.48	
43	64	gain	664.2148605999537	664.2224474999821	667.5138680000091	669.5289412999991	3.291420500027016	0.3	0	0.67	top	left	left	gamble	good	0.67	12.15	
44	19	mix	674.1383245999459	674.1390704999212	681.3731066000182	683.3894240999362	7.234036100097001	0	-0.8	0.53	bottom	right	right	gamble	bad	-0.8	11.35	
45	33	mix	688.8474140999606	688.8481383000035	694.0164248999208	694.0244721999625	5.168286599917337	0	-1.5	1.23	bottom	right	left	safe	bad	0.0	11.35	
46	102	loss	706.6438524000114	706.6445741999196	714.6225837999955	0	0	-0.2	-0.36	0	top	right	NaN	NaN	Nan	0	11.35	
47	134	loss	716.722471899935	716.7232443999965	721.5012866000179	723.517276700004	4.778042200021446	-0.5	-1.11	0	bottom	right	right	gamble	good	0.0	11.35	
48	136	loss	728.1215934999054	728.1294608999742	732.6292616999708	732.6380826999666	4.499800799996592	-0.5	-1.4	0	top	left	right	safe	good	-0.5	10.85	
49	88	gain	746.5709782999475	746.5716944999294	749.6032631999115	751.619237100007	3.0315686999820173	0.5	0	1.8	bottom	right	right	gamble	good	1.8	12.65	
50	22	mix	756.9558495999081	756.964265299961	761.7306469000177	761.7382731999969	4.766381600056775	0	-1.1	0.22	top	left	right	safe	good	0.0	12.65	
51	108	loss	769.0872017999645	769.0882546999492	776.2398780999938	776.2484616999282	7.1516234000446275	-0.2	-0.72	0	bottom	right	left	safe	bad	-0.2	12.45	
52	5	mix	788.9985393999377	789.0040309999604	792.7308882999932	792.738491899916	3.7268573000328615	0	-0.3	0.2	top	left	right	safe	good	0.0	12.45	
53	140	loss	800.2120582999196	800.212809199933	804.9092815999174	806.9240245999536	4.696472399984486	-0.5	-2.5	0	top	right	right	gamble	bad	-2.5	9.95	
54	101	loss	811.690501099918	811.6982594999718	817.9343491999898	817.9426833000034	6.236089700018056	-0.2	-0.34	0	bottom	left	right	safe	good	-0.2	9.75	
55	55	gain	834.1423943999689	834.1479819999076	837.1907459999202	839.206701499992	3.0427640000125393	0.2	0	0.5	top	left	left	gamble	bad	0.0	9.75	
56	6	mix	843.9091542999959	843.9167216999922	850.5330801999662	852.5487407000037	6.616358499974012	0	-0.3	0.25	bottom	left	left	gamble	bad	-0.3	9.45	
57	62	gain	857.7345060999505	857.7418569999281	862.9609129999299	864.9763962000143	5.2190560000017285	0.3	0	0.55	bottom	left	left	gamble	bad	0.0	9.45	
58	94	gain	877.0536137999734	877.054340899922	881.0001697000116	883.0160256999079	3.9458288000896573	0.6	0	1.33	bottom	right	right	gamble	bad	0.0	9.45	
59	145	loss	888.3689622000093	888.4107491999166	893.7103280000156	893.7181485999608	5.2995788000989705	-0.6	-1.49	0	top	left	right	safe	good	-0.6	8.85	
60	40	mix	900.832822999917	900.8335358999902	905.40449789993	905.4113580000121	4.570961999939755	0	-0.5	1	top	right	left	safe	good	0.0	8.85	
61	123	loss	918.4317523000063	918.4324926999398	923.3278659000061	923.3356049999129	4.895373200066388	-0.4	-0.8	0	bottom	right	left	safe	good	-0.4	8.45	
62	68	gain	930.2796248999657	930.2803656000178	932.8899175999686	934.9061927999137	2.6095519999507815	0.3	0	1.08	top	right	right	gamble	good	1.08	9.53	
63	149	loss	938.9539146999596	938.954659699928	943.45123529993	943.4591948000016	4.496575600001961	-0.6	-2.52	0	bottom	right	left	safe	bad	-0.6	8.93	
64	85	gain	959.4599829999497	959.4684696999611	962.2079292999115	964.2233081000159	2.739459599950351	0.5	0	1.24	top	left	left	gamble	good	1.24	10.17	
65	117	loss	968.9311056999722	968.9318097999785	974.6007919999538	974.608418299933	5.668982199975289	-0.3	-0.95	0	top	right	left	safe	good	-0.3	9.87	
66	119	loss	981.181928499951	981.1849291999824	985.5949587000068	985.6027835999848	4.410029500024393	-0.3	-1.26	0	bottom	right	left	safe	good	-0.3	9.57	
67	121	loss	999.6220917999744	999.6284128999105	1003.3688739999197	1003.3765623999061	3.74046110000927	-0.4	-0.67	0	bottom	left	right	safe	bad	-0.4	9.17	
68	9	mix	1010.0450888000196	1010.0458264999324	1014.7633708999492	1014.7709701999556	4.717544400016777	0	-0.5	0.15	bottom	right	left	safe	bad	0.0	9.17	
69	90	gain	1021.3066075999523	1021.3073565999512	1025.6236293999245	1027.640562399989	4.316272799973376	0.5	0	2.5	top	right	right	gamble	bad	0.0	9.17	
70	45	mix	1040.3832699999912	1040.3916261999402	1045.1802325999597	1047.19655220001	4.788606400019489	0	-1.1	1.32	top	left	left	gamble	bad	-1.1	8.07	
71	61	gain	1051.9021860999055	1051.909468299942	1057.4741051999154	1059.4905761999544	5.564636899973266	0.3	0	0.5	top	left	left	gamble	bad	0.0	8.07	
72	8	mix	1064.4218450000044	1064.4226021999493	1069.567048399942	1069.57539309992	5.144446199992672	0	-0.5	0.1	bottom	right	left	safe	bad	0.0	8.07	
73	67	gain	1081.9101440999657	1081.9108885999303	1085.9751753999153	1087.9920272999443	4.064286799984984	0.3	0	0.95	top	right	right	gamble	bad	0.0	8.07	
74	144	loss	1093.1632785999682	1093.164033500012	1097.8028077000054	1097.8105666999472	4.63877419999335	-0.6	-1.33	0	bottom	right	left	safe	good	-0.6	7.47	
75	80	gain	1105.0556698999135	1105.0607161999214	1109.5633274000138	1111.578990799957	4.50261120009236	0.4	0	2	top	left	left	gamble	bad	0.0	7.47	
76	17	mix	1124.3378449999727	1131.8677799999714	1137.0147650999716	1137.0223946999758	5.146985100000165	0	-0.8	0.32	top	right	left	safe	good	0.0	7.47	
77	57	gain	1144.5192205999047	1144.5253985999152	1148.5758467999985	1150.5919205999235	4.050448200083338	0.2	0	0.63	top	left	left	gamble	good	0.63	8.1	
78	97	gain	1155.559397600009	1155.5655368999578	1159.2698510999326	1161.2871360999998	3.7043141999747604	0.6	0	1.9	top	left	left	gamble	bad	0.0	8.1	
79	12	mix	1175.0126034999266	1175.0200348999351	1180.1258223999757	1180.1333161999937	5.105787500040606	0	-0.5	0.33	bottom	left	right	safe	good	0.0	8.1	
80	60	gain	1187.1795532999095	1187.1865866999142	1190.6036904999055	1192.619309599977	3.4171037999913096	0.2	0	1	top	left	left	gamble	good	1.0	9.1	
81	71	gain	1197.6754534000065	1197.683493199991	1203.063170599984	1205.0799979999429	5.379677399992943	0.4	0	0.67	bottom	left	left	gamble	good	0.67	9.77	
82	75	gain	1226.6350564999739	1226.640124599915	1231.8651179999579	1233.8813331999118	5.224993400042877	0.4	0	0.99	top	left	left	gamble	good	0.99	10.76	
83	107	loss	1239.359023500001	1239.3676185999066	1246.60734769993	1246.6150085999398	7.239729100023396	-0.2	-0.63	0	top	left	right	safe	bad	-0.2	10.56	
84	114	loss	1253.8961981999455	1253.9026183999376	1261.8830240999814	0	0	-0.3	-0.67	0	top	left	right	safe	NaN	0	10.56	
85	2	mix	1269.1951209999388	1269.1958688999293	1274.3921249000123	1274.400438599987	5.19625600008294	0	-0.3	0.09	top	right	left	safe	bad	0.0	10.56	
86	115	loss	1281.1652816999704	1281.1660186999943	1284.920386099955	1286.936620799941	3.7543673999607563	-0.3	-0.74	0	top	right	right	gamble	bad	-0.74	9.82	
87	98	gain	1291.8551259000087	1291.8558701999718	1295.9978561999742	1298.014193699928	4.141986000002362	0.6	0	2.16	bottom	right	right	gamble	bad	0.0	9.82	
88	29	mix	1312.5892010999378	1312.58996319992	1317.8359062999953	1317.8437847999157	5.2459431000752375	0	-1.5	0.45	top	right	left	safe	bad	0.0	9.82	
89	130	loss	1325.2393866999773	1325.244626599946	1330.9960363999708	1331.003738899948	5.751409800024703	-0.4	-2	0	top	left	right	safe	good	-0.4	9.42	
90	77	gain	1338.4737969000125	1338.4745543999597	1342.8397299000062	1344.856120100012	4.365175500046462	0.4	0	1.26	top	right	right	gamble	good	1.26	10.68	
91	148	loss	1355.2824163999176	1355.2832652999787	1360.0473664000165	1360.0553586999886	4.764101100037806	-0.6	-2.16	0	bottom	right	left	safe	good	-0.6	10.08	
92	23	mix	1367.096375299967	1367.0971281999955	1372.9071684000082	1372.9146515999455	5.810040200012736	0	-1.1	0.33	bottom	right	left	safe	good	0.0	10.08	
93	84	gain	1379.4912728999043	1379.492150499951	1383.067853699904	1385.0836366999429	3.575703199952841	0.5	0	1.11	bottom	right	right	gamble	good	1.11	11.19	
94	34	mix	1402.9753134999191	1402.9760304999072	1407.9714500999544	1407.9791054999223	4.995419600047171	0	-1.5	1.5	bottom	right	left	safe	bad	0.0	11.19	
95	131	loss	1415.222888099961	1415.2310082999757	1420.4987071999349	1420.5068078999175	5.267698899959214	-0.5	-0.84	0	bottom	left	right	safe	good	-0.5	10.69	
96	7	mix	1427.2397753999103	1427.24667709996	1431.7926402000012	1431.8003521999344	4.545963100041263	0	-0.3	0.3	top	left	right	safe	bad	0.0	10.69	
97	79	gain	1449.1498665999388	1449.1506231999956	1452.7815431999043	1454.7976075999904	3.630919999908656	0.4	0	1.68	top	right	right	gamble	good	1.68	12.37	
98	109	loss	1459.345246199984	1459.3459902999457	1464.4753872000147	1464.4829618999502	5.1293969000689685	-0.2	-0.84	0	bottom	right	left	safe	bad	-0.2	12.17	
99	135	loss	1471.7196683000075	1471.728489800007	1479.6168463999638	1481.632697199937	7.888356599956751	-0.5	-1.24	0	top	left	left	gamble	good	0.0	12.17	
100	91	gain	1493.177586899954	1493.1835476999404	1496.741087100003	1498.7573896999238	3.557539400062524	0.6	0	1.01	bottom	left	left	gamble	bad	0.0	12.17	
101	41	mix	1504.2389690999407	1504.2465491999174	1507.9350763999391	1507.9420774999307	3.688527200021781	0	-0.8	0.96	bottom	left	right	safe	good	0.0	12.17	
102	143	loss	1515.149966099998	1515.1506782999495	1521.028779599932	1521.0365094000008	5.878101299982518	-0.6	-1.2	0	top	right	left	safe	bad	-0.6	11.57	
103	74	gain	1534.0550926999422	1534.0558581999503	1538.1023160999175	1540.1190690000076	4.0464578999672085	0.4	0	0.89	bottom	right	right	gamble	good	0.89	12.46	
104	30	mix	1544.6578681999817	1544.6656649999786	1549.7129610999255	1549.7214034999488	5.047296099946834	0	-1.5	0.6	top	left	right	safe	good	0.0	12.46	
105	43	mix	1557.2244217999978	1557.225338499993	1561.973870899994	1561.982091199956	4.74853240000084	0	-0.8	1.6	top	right	left	safe	bad	0.0	12.46	
106	69	gain	1575.8823699000059	1575.883241100004	1580.446793799987	1582.4636885999935	4.56355269998312	0.3	0	1.26	bottom	right	right	gamble	bad	0.0	12.46	
107	93	gain	1587.6152489999076	1587.615962299984	1594.1068389000138	1594.1147274000105	6.490876600029878	0.6	0	1.2	top	right	left	safe	bad	0.6	13.06	
108	15	mix	1601.530295799952	1601.5310692999046	1606.0338566999417	1608.050147700007	4.50278740003705	0	-0.8	0.16	top	right	right	gamble	bad	-0.8	12.26	
109	87	gain	1626.8720311999787	1626.8805794999935	1630.1038701999933	1632.1207537999144	3.2232906999997795	0.5	0	1.58	bottom	left	left	gamble	bad	0.0	12.26	
110	26	mix	1637.066109700012	1637.0748647999717	1642.4810129000107	1642.4879931999603	5.40614810003899	0	-1.1	0.73	bottom	left	right	safe	good	0.0	12.26	
111	50	mix	1649.3719462999143	1649.3781039000023	1652.6089805999072	1652.6162073999876	3.230876699904911	0	-1.5	3	top	left	right	safe	bad	0.0	12.26	
112	36	mix	1665.7681162999943	1665.7768351999111	1671.3659968000138	1671.3736714000115	5.5891616001026705	0	-0.3	0.45	top	left	right	safe	good	0.0	12.26	
113	139	loss	1678.2982496999903	1678.3061320999404	1683.7261029999936	1683.7338078999892	5.419970900053158	-0.5	-2.1	0	top	left	right	safe	bad	-0.5	11.76	
114	21	mix	1690.9052187999478	1690.9122114999918	1695.236455700011	1695.2433679999085	4.324244200019166	0	-0.8	0.8	bottom	left	right	safe	bad	0.0	11.76	
115	138	loss	1709.5450505999615	1709.5458527000155	1715.1427993999096	1715.1514336999971	5.596946699894033	-0.5	-1.8	0	bottom	right	left	safe	bad	-0.5	11.26	
116	4	mix	1722.667737599928	1722.6684823000105	1727.835897199926	1727.8428876999533	5.167414899915457	0	-0.3	0.16	top	right	left	safe	bad	0.0	11.26	
117	146	loss	1734.3905414999463	1734.3988445999566	1738.7630077999784	1738.7699816999957	4.364163200021721	-0.6	-1.68	0	bottom	left	right	safe	bad	-0.6	10.66	
118	25	mix	1751.0908030999126	1751.0987040000036	1756.7706502999645	1758.7866350999102	5.671946299960837	0	-1.1	0.57	top	left	left	gamble	good	0.57	11.23	
119	122	loss	1763.9439874999225	1763.952203999972	1771.9298475999385	0	0	-0.4	-0.73	0	top	left	left	gamble	NaN	0	11.23	
120	125	loss	1774.82809179998	1774.8315578999463	1778.891746899928	1778.8993758999277	4.060188999981619	-0.4	-0.99	0	top	left	right	safe	bad	-0.4	10.83	
121	76	gain	1791.6350098999683	1791.6508869999088	1794.7840688999277	1796.8000265000155	3.133181900018826	0.4	0	1.12	bottom	left	left	gamble	bad	0.0	10.83	
122	53	gain	1801.7328896999825	1801.733603599947	1805.0277870999416	1807.0452592999209	3.2941834999946877	0.2	0	0.4	top	right	right	gamble	bad	0.0	10.83	
123	137	loss	1811.8366028999444	1811.8451046999544	1818.2881354999263	1818.295840299921	6.443030799971893	-0.5	-1.58	0	bottom	left	right	safe	good	-0.5	10.33	
124	70	gain	1835.7460735999048	1835.7517721999902	1838.7107095000101	1840.7258856999688	2.9589373000198975	0.3	0	1.5	top	left	left	gamble	bad	0.0	10.33	
125	142	loss	1845.271447999985	1845.2723355999915	1850.50389729999	1850.5122655999148	5.231561699998565	-0.6	-1.09	0	top	right	left	safe	good	-0.6	9.73	
126	14	mix	1857.9942545999074	1858.0012120999163	1861.3813077999512	1861.3882194999605	3.3800957000348717	0	-0.5	0.5	top	left	right	safe	bad	0.0	9.73	
127	38	mix	1872.2768783000065	1872.2776259999955	1876.4074069999624	1876.41504230001	4.129780999966897	0	-0.5	0.6	bottom	right	left	safe	bad	0.0	9.73	
128	28	mix	1883.1179532000097	1883.1187161999987	1887.1678315999452	1887.175426499918	4.049115399946459	0	-1.5	0.3	top	right	left	safe	good	0.0	9.73	
129	27	mix	1893.8500277999556	1893.8508977999445	1897.5130359999603	1897.5200397999724	3.662138200015761	0	-1.1	0.9	top	right	left	safe	bad	0.0	9.73	
130	18	mix	1911.089085399988	1911.0899649999337	1915.8526392999338	1917.869319899939	4.7626743000000715	0	-0.8	0.42	top	right	right	gamble	good	0.42	10.15	
131	46	mix	1922.8367875999538	1922.8439404999372	1929.495901599992	1931.5120357999112	6.651961100054905	0	-1.1	1.65	bottom	left	left	gamble	good	1.65	11.8	
132	124	loss	1936.0691155999666	1936.069933099905	1943.3380643000128	1943.3456230999436	7.268131200107746	-0.4	-0.89	0	bottom	right	left	safe	bad	-0.4	11.4	
133	92	gain	1955.9159562999848	1955.9167084000073	1959.2802395999897	1961.2953322000103	3.36353119998239	0.6	0	1.09	top	right	right	gamble	bad	0.0	11.4	
134	20	mix	1966.237941899919	1966.2440809999825	1970.5241464999272	1972.5402894999133	4.280065499944612	0	-0.8	0.66	top	left	left	gamble	bad	-0.8	10.6	
135	112	loss	1977.9462373999413	1977.954839999904	1981.9849119000137	1981.9923939999426	4.0300719001097605	-0.3	-0.55	0	bottom	left	right	safe	good	-0.3	10.3	
136	49	mix	1993.7623692000052	1993.7631273999577	1999.2250858999323	1999.2329841000028	5.461958499974571	0	-1.5	2.25	bottom	right	left	safe	bad	0.0	10.3	
137	63	gain	2006.287560399971	2006.2883632999146	2009.7533626999939	2011.7697131999303	3.4649994000792503	0.3	0	0.6	bottom	right	right	gamble	good	0.6	10.9	
138	99	gain	2017.0075509999879	2017.0082727000117	2019.115079500014	2021.1314378000097	2.106806800002232	0.6	0	2.52	bottom	right	right	gamble	good	2.52	13.42	
139	54	gain	2030.6756539999042	2030.676448800019	2033.523834099993	2035.5405833999394	2.847385299974121	0.2	0	0.44	top	right	right	gamble	good	0.44	13.86	
140	132	loss	2039.6215264999773	2039.6295177999418	2044.635133999982	2044.6434791999636	5.0056162000400946	-0.5	-0.91	0	top	left	right	safe	bad	-0.5	13.36	
141	96	gain	2051.1864838999463	2051.192621800001	2057.327803299995	2059.344093899941	6.13518149999436	0.6	0	1.68	bottom	left	left	gamble	good	1.68	15.04	
142	11	mix	2070.1376218999503	2070.1464883999433	2074.1360713000176	2074.1441447999096	3.9895829000743106	0	-0.5	0.26	top	left	right	safe	good	0.0	15.04	
143	3	mix	2081.029664999922	2081.0304136999184	2086.645428599906	2088.662116399966	5.615014899987727	0	-0.3	0.12	top	right	right	gamble	bad	-0.3	14.74	
144	73	gain	2093.479112399975	2093.479978099931	2096.3408706999617	2098.3562756999163	2.8608926000306383	0.4	0	0.8	bottom	right	right	gamble	bad	0.0	14.74	
145	72	gain	2110.850551999989	2110.8583369000116	2114.264834099915	2116.281203899998	3.4064971999032423	0.4	0	0.73	top	left	left	gamble	bad	0.0	14.74	
146	118	loss	2121.5530069000088	2121.5537188999588	2124.3593923000153	2126.374574000016	2.8056734000565484	-0.3	-1.08	0	top	right	right	gamble	good	0.0	14.74	
147	35	mix	2130.636805200018	2130.644654099946	2133.8876741999993	2133.8947333999677	3.2430201000534	0	-0.3	0.36	top	left	right	safe	bad	0.0	14.74	
148	66	gain	2149.412802499952	2149.420514600002	2154.527428500005	2156.5424777999287	5.106913900002837	0.3	0	0.84	bottom	left	left	gamble	bad	0.0	14.74	
149	141	loss	2161.873682799982	2161.8816105999285	2168.2862301999703	2168.2937792999437	6.4046196000417694	-0.6	-1.01	0	bottom	left	right	safe	good	-0.6	14.14	
150	65	gain	2174.9419564999407	2174.942698900006	2177.1815022999654	2179.196690300014	2.238803399959579	0.3	0	0.74	top	right	right	gamble	bad	0.0	14.14	

Start Time: 11:37:37
End Time: 12:14:11